Eulerx,Eulery,Eulerz,Accx,Accy,Accz,Gyrox,Gyroy,Gyroz,Label
-4.235294,-2.823529,-42.352941,-0.007843,-0.007843,0.007843,-1.960784,-1.960784,-1.960784,Null
-4.235294,-2.823529,-42.352941,0.007843,-0.007843,0.007843,-1.960784,-1.960784,-1.960784,Null
-4.235294,-2.823529,-42.352941,-0.007843,-0.007843,-0.007843,-1.960784,-1.960784,-1.960784,Null
-4.235294,-2.823529,-42.352941,-0.007843,-0.007843,-0.007843,-1.960784,-1.960784,-1.960784,Null
-4.235294,-2.823529,-42.352941,-0.007843,-0.007843,0.007843,-1.960784,-1.960784,-1.960784,Null
-4.235294,-2.823529,-42.352941,-0.007843,-0.007843,-0.007843,-1.960784,-1.960784,-1.960784,Null
-4.235294,-2.823529,-42.352941,-0.007843,-0.007843,-0.007843,-1.960784,-1.960784,-1.960784,Null
-4.235294,-2.823529,-42.352941,-0.007843,-0.007843,-0.007843,-1.960784,-1.960784,-1.960784,Null
-4.235294,-2.823529,-42.352941,-0.007843,-0.007843,-0.007843,-1.960784,-1.960784,-1.960784,Null
-4.235294,-2.823529,-42.352941,-0.007843,-0.007843,-0.007843,-1.960784,-1.960784,-1.960784,Null
-4.235294,-2.823529,-42.352941,-0.007843,-0.007843,-0.007843,-1.960784,-1.960784,-1.960784,Null
-4.235294,-2.823529,-42.352941,-0.007843,-0.007843,-0.007843,-1.960784,-1.960784,-1.960784,Null
-4.235294,-2.823529,-42.352941,-0.007843,-0.007843,-0.007843,-1.960784,-1.960784,-1.960784,Null
-4.235294,-2.823529,-42.352941,-0.007843,-0.007843,-0.007843,-1.960784,-1.960784,-1.960784,Null
-4.235294,-2.823529,-42.352941,-0.007843,-0.007843,-0.007843,-1.960784,-1.960784,-1.960784,Null
-4.235294,-2.823529,-42.352941,-0.007843,-0.007843,-0.007843,-1.960784,-1.960784,-1.960784,Null
-4.235294,-2.823529,-42.352941,-0.007843,-0.007843,-0.007843,-1.960784,-1.960784,-1.960784,Null
-4.235294,-2.823529,-42.352941,-0.007843,-0.007843,-0.007843,-1.960784,-1.960784,-1.960784,Null
-4.235294,-2.823529,-42.352941,-0.007843,-0.023529,-0.007843,-1.960784,-1.960784,-1.960784,Null
-4.235294,-2.823529,-42.352941,-0.007843,-0.007843,0.007843,-1.960784,-1.960784,-1.960784,Null
-4.235294,-2.823529,-42.352941,0.007843,-0.007843,-0.007843,-1.960784,-1.960784,-1.960784,Null
-4.235294,-2.823529,-42.352941,-0.007843,-0.007843,0.007843,-1.960784,-1.960784,-1.960784,Null
-4.235294,-2.823529,-42.352941,-0.007843,-0.007843,-0.007843,-1.960784,-1.960784,-1.960784,3
-4.235294,-2.823529,-42.352941,-0.007843,-0.007843,-0.007843,-1.960784,-1.960784,-1.960784,3
-4.235294,-2.823529,-42.352941,-0.007843,-0.007843,0.007843,-1.960784,-1.960784,-1.960784,3
-4.235294,-2.823529,-42.352941,-0.007843,-0.007843,-0.007843,-1.960784,-1.960784,-1.960784,3
-4.235294,-2.823529,-42.352941,-0.023529,-0.023529,-0.007843,-1.960784,-1.960784,-1.960784,3
-4.235294,-2.823529,-42.352941,-0.007843,-0.023529,-0.007843,-1.960784,-1.960784,-1.960784,3
-4.235294,-2.823529,-42.352941,-0.007843,-0.007843,-0.007843,-1.960784,-1.960784,-1.960784,3
-4.235294,-2.823529,-42.352941,-0.007843,-0.007843,-0.007843,-1.960784,-1.960784,-1.960784,3
-4.235294,-2.823529,-42.352941,-0.007843,-0.007843,-0.007843,-1.960784,-1.960784,-1.960784,3
-4.235294,-2.823529,-42.352941,-0.007843,-0.023529,0.023529,-1.960784,-1.960784,-1.960784,3
-4.235294,-2.823529,-42.352941,0.007843,0.007843,0.007843,-1.960784,-1.960784,-1.960784,3
-4.235294,-2.823529,-42.352941,0.007843,-0.007843,0.007843,-1.960784,-1.960784,-1.960784,3
-4.235294,-2.823529,-40.941176,-0.007843,-0.007843,-0.007843,-1.960784,-1.960784,-1.960784,3
-4.235294,-2.823529,-40.941176,-0.007843,-0.007843,-0.007843,-1.960784,-1.960784,-1.960784,3
-4.235294,-2.823529,-40.941176,0.007843,0.007843,-0.007843,-1.960784,-1.960784,-1.960784,3
-4.235294,-2.823529,-40.941176,-0.007843,-0.007843,-0.023529,-1.960784,-1.960784,-1.960784,3
-4.235294,-2.823529,-40.941176,-0.023529,-0.023529,-0.007843,-1.960784,-1.960784,-1.960784,3
-4.235294,-2.823529,-40.941176,-0.007843,-0.007843,-0.007843,-1.960784,-1.960784,-1.960784,3
-4.235294,-2.823529,-40.941176,-0.007843,-0.007843,-0.007843,-1.960784,-1.960784,-1.960784,3
-4.235294,-2.823529,-40.941176,-0.007843,-0.023529,-0.023529,-1.960784,-1.960784,-1.960784,3
-4.235294,-2.823529,-40.941176,-0.007843,-0.007843,0.007843,-1.960784,-1.960784,-1.960784,3
-4.235294,-2.823529,-40.941176,-0.007843,-0.007843,0.007843,-1.960784,-1.960784,-1.960784,3
-4.235294,-2.823529,-40.941176,-0.007843,-0.007843,0.007843,-1.960784,-1.960784,-1.960784,3
-4.235294,-2.823529,-40.941176,-0.007843,-0.007843,-0.007843,-1.960784,-1.960784,-1.960784,3
-4.235294,-2.823529,-40.941176,-0.007843,-0.023529,0.007843,-1.960784,-1.960784,-1.960784,3
-4.235294,-2.823529,-40.941176,-0.007843,-0.007843,0.007843,-1.960784,-1.960784,-1.960784,3
-4.235294,-2.823529,-40.941176,0.007843,0.007843,0.007843,-1.960784,-1.960784,-1.960784,3
-4.235294,-2.823529,-40.941176,-0.007843,-0.007843,-0.007843,-1.960784,-1.960784,-1.960784,3
-4.235294,-2.823529,-40.941176,0.007843,-0.007843,-0.007843,-1.960784,-1.960784,-1.960784,3
-4.235294,-2.823529,-40.941176,-0.007843,-0.007843,0.007843,-1.960784,-1.960784,-1.960784,3
-4.235294,-2.823529,-40.941176,0.007843,-0.007843,-0.007843,-1.960784,-1.960784,-1.960784,3
-4.235294,-2.823529,-40.941176,-0.007843,-0.007843,-0.007843,-1.960784,-1.960784,-1.960784,3
-4.235294,-2.823529,-40.941176,-0.007843,-0.023529,-0.007843,-1.960784,-1.960784,-1.960784,3
-4.235294,-2.823529,-40.941176,-0.007843,-0.007843,-0.007843,-1.960784,-1.960784,-1.960784,3
-4.235294,-2.823529,-40.941176,-0.007843,-0.007843,-0.007843,-1.960784,-1.960784,-1.960784,3
-4.235294,-2.823529,-40.941176,-0.007843,-0.007843,-0.007843,-1.960784,-1.960784,-1.960784,3
-4.235294,-2.823529,-40.941176,-0.007843,-0.007843,-0.007843,-1.960784,-1.960784,-1.960784,3
-4.235294,-2.823529,-40.941176,-0.007843,-0.007843,-0.007843,-1.960784,-1.960784,-1.960784,3
-4.235294,-2.823529,-40.941176,-0.007843,-0.007843,-0.007843,-1.960784,-1.960784,-1.960784,3
-4.235294,-2.823529,-40.941176,-0.007843,-0.007843,-0.007843,-1.960784,-1.960784,-1.960784,3
-4.235294,-2.823529,-40.941176,-0.007843,-0.007843,-0.007843,-1.960784,-1.960784,-1.960784,3
-4.235294,-2.823529,-40.941176,-0.007843,-0.007843,-0.007843,-1.960784,-1.960784,-1.960784,3
-4.235294,-2.823529,-40.941176,-0.007843,-0.007843,-0.007843,-1.960784,-1.960784,-1.960784,3
-4.235294,-2.823529,-40.941176,-0.007843,-0.007843,-0.007843,-1.960784,-1.960784,-1.960784,3
-4.235294,-2.823529,-40.941176,-0.007843,-0.007843,-0.007843,-1.960784,-1.960784,-1.960784,3
-4.235294,-2.823529,-40.941176,-0.007843,-0.007843,-0.007843,-1.960784,-1.960784,-1.960784,3
-4.235294,-2.823529,-40.941176,-0.007843,-0.007843,-0.007843,-1.960784,-1.960784,-1.960784,3
-4.235294,-2.823529,-40.941176,-0.007843,-0.007843,-0.007843,-1.960784,-1.960784,-1.960784,3
-4.235294,-2.823529,-40.941176,-0.007843,-0.007843,-0.007843,-1.960784,-1.960784,-1.960784,3
-4.235294,-2.823529,-40.941176,-0.007843,-0.007843,-0.007843,-1.960784,-1.960784,-1.960784,3
-4.235294,-2.823529,-40.941176,-0.007843,-0.007843,-0.007843,-1.960784,-1.960784,-1.960784,3
-4.235294,-2.823529,-40.941176,-0.007843,-0.007843,-0.007843,-1.960784,-1.960784,-1.960784,3
-4.235294,-2.823529,-40.941176,-0.007843,-0.007843,-0.007843,-1.960784,-1.960784,-1.960784,3
-4.235294,-2.823529,-40.941176,-0.007843,-0.007843,-0.007843,-1.960784,-1.960784,-1.960784,3
-4.235294,-2.823529,-40.941176,-0.007843,-0.007843,-0.007843,-1.960784,-1.960784,-1.960784,3
-4.235294,-2.823529,-40.941176,-0.007843,-0.007843,-0.007843,-1.960784,-1.960784,-1.960784,3
-4.235294,-2.823529,-40.941176,-0.007843,-0.007843,-0.007843,-1.960784,-1.960784,-1.960784,3
-4.235294,-2.823529,-40.941176,-0.007843,-0.007843,-0.007843,-1.960784,-1.960784,-1.960784,3
-4.235294,-2.823529,-40.941176,-0.007843,-0.023529,-0.007843,-1.960784,-1.960784,-1.960784,3
-4.235294,-2.823529,-40.941176,-0.007843,-0.007843,-0.007843,-1.960784,-1.960784,-1.960784,3
-4.235294,-2.823529,-40.941176,-0.007843,-0.007843,-0.007843,-1.960784,-1.960784,-1.960784,3
-4.235294,-2.823529,-40.941176,-0.007843,-0.007843,-0.007843,-1.960784,-1.960784,-1.960784,3
-4.235294,-2.823529,-40.941176,-0.007843,-0.007843,-0.007843,-1.960784,-1.960784,-1.960784,3
-4.235294,-2.823529,-40.941176,-0.007843,-0.007843,-0.007843,-1.960784,-1.960784,-1.960784,3
-4.235294,-2.823529,-40.941176,-0.007843,-0.007843,-0.007843,-1.960784,-1.960784,-1.960784,3
-4.235294,-2.823529,-40.941176,-0.007843,-0.007843,-0.007843,-1.960784,-1.960784,-1.960784,3
-4.235294,-2.823529,-40.941176,-0.007843,-0.007843,-0.007843,-1.960784,-1.960784,-1.960784,3
-4.235294,-2.823529,-40.941176,-0.007843,-0.007843,-0.007843,-1.960784,-1.960784,-1.960784,3
-4.235294,-2.823529,-40.941176,-0.007843,-0.007843,-0.007843,-1.960784,-1.960784,-1.960784,3
-4.235294,-2.823529,-40.941176,-0.007843,-0.007843,-0.007843,-1.960784,-1.960784,-1.960784,3
-4.235294,-2.823529,-40.941176,-0.007843,-0.023529,0.007843,-1.960784,-1.960784,-1.960784,3
-4.235294,-2.823529,-40.941176,-0.007843,-0.007843,-0.007843,-1.960784,-1.960784,-1.960784,3
-4.235294,-2.823529,-40.941176,0.007843,-0.007843,-0.007843,-1.960784,-1.960784,-1.960784,3
-4.235294,-2.823529,-40.941176,-0.007843,-0.023529,0.023529,-1.960784,-1.960784,-1.960784,3
-4.235294,-2.823529,-40.941176,-0.007843,-0.007843,-0.023529,-1.960784,-1.960784,-1.960784,3
-4.235294,-2.823529,-40.941176,-0.007843,-0.007843,-0.007843,-1.960784,-1.960784,-1.960784,3
-4.235294,-2.823529,-40.941176,-0.007843,-0.007843,-0.007843,-1.960784,-1.960784,-1.960784,3
-4.235294,-2.823529,-40.941176,-0.007843,-0.007843,-0.007843,-1.960784,-1.960784,-1.960784,3
-4.235294,-2.823529,-40.941176,-0.007843,-0.007843,-0.007843,-1.960784,-1.960784,-1.960784,3
-4.235294,-2.823529,-40.941176,-0.007843,-0.007843,-0.007843,-1.960784,-1.960784,-1.960784,3
-4.235294,-2.823529,-40.941176,-0.007843,-0.007843,-0.007843,-1.960784,-1.960784,-1.960784,3
-4.235294,-2.823529,-40.941176,-0.007843,-0.023529,-0.007843,-1.960784,-1.960784,-1.960784,3
-4.235294,-2.823529,-40.941176,-0.007843,-0.007843,-0.007843,-1.960784,-1.960784,-1.960784,3
-4.235294,-2.823529,-40.941176,0.007843,-0.007843,-0.007843,-1.960784,-1.960784,-1.960784,3
-4.235294,-2.823529,-40.941176,-0.007843,-0.007843,-0.007843,-1.960784,-1.960784,-1.960784,3
-4.235294,-2.823529,-40.941176,-0.007843,-0.007843,-0.007843,-1.960784,-1.960784,-1.960784,3
-4.235294,-2.823529,-40.941176,-0.007843,-0.023529,-0.007843,-1.960784,-1.960784,-1.960784,3
-4.235294,-2.823529,-40.941176,-0.007843,-0.007843,-0.007843,-1.960784,-1.960784,-1.960784,3
-4.235294,-2.823529,-40.941176,-0.007843,-0.007843,-0.007843,-1.960784,-1.960784,-1.960784,3
-4.235294,-2.823529,-40.941176,-0.007843,-0.023529,0.007843,-1.960784,-1.960784,-1.960784,3
-4.235294,-2.823529,-40.941176,-0.007843,-0.007843,-0.007843,-1.960784,-1.960784,-1.960784,3
-4.235294,-2.823529,-40.941176,-0.007843,-0.007843,-0.007843,-1.960784,-1.960784,-1.960784,3
-4.235294,-2.823529,-40.941176,-0.007843,-0.007843,-0.007843,-1.960784,-1.960784,-1.960784,3
-4.235294,-2.823529,-40.941176,-0.007843,-0.007843,-0.007843,-1.960784,-1.960784,-1.960784,3
-4.235294,-2.823529,-40.941176,-0.007843,-0.007843,-0.007843,-1.960784,-1.960784,-1.960784,3
-4.235294,-2.823529,-40.941176,-0.007843,-0.007843,-0.007843,-1.960784,-1.960784,-1.960784,3
-4.235294,-2.823529,-40.941176,-0.007843,-0.007843,-0.007843,-1.960784,-1.960784,-1.960784,3
-4.235294,-2.823529,-40.941176,-0.007843,-0.007843,-0.007843,-1.960784,-1.960784,-1.960784,3
-4.235294,-2.823529,-40.941176,-0.007843,-0.007843,-0.023529,-1.960784,-1.960784,-1.960784,3
-4.235294,-2.823529,-40.941176,-0.007843,-0.007843,-0.023529,-1.960784,-1.960784,-1.960784,3
-4.235294,-2.823529,-40.941176,-0.007843,-0.007843,-0.007843,-1.960784,-1.960784,-1.960784,3
-4.235294,-2.823529,-40.941176,-0.007843,-0.007843,-0.007843,-1.960784,-1.960784,-1.960784,3
-4.235294,-2.823529,-40.941176,-0.007843,-0.007843,-0.007843,-1.960784,-1.960784,-1.960784,3
-4.235294,-2.823529,-40.941176,-0.007843,-0.007843,-0.007843,-1.960784,-1.960784,-1.960784,3
-4.235294,-2.823529,-40.941176,-0.007843,-0.007843,-0.007843,-1.960784,-1.960784,-1.960784,3
-4.235294,-2.823529,-40.941176,0.007843,-0.007843,-0.007843,-1.960784,-1.960784,-1.960784,3
-4.235294,-2.823529,-40.941176,-0.007843,-0.007843,-0.007843,-1.960784,-1.960784,-1.960784,3
-4.235294,-2.823529,-40.941176,-0.007843,-0.007843,-0.007843,-1.960784,-1.960784,-1.960784,3
-4.235294,-2.823529,-40.941176,-0.007843,-0.007843,-0.007843,-1.960784,-1.960784,-1.960784,3
-4.235294,-2.823529,-40.941176,-0.007843,-0.007843,-0.007843,-1.960784,-1.960784,-1.960784,3
-4.235294,-2.823529,-40.941176,-0.007843,-0.007843,-0.007843,-1.960784,-1.960784,-1.960784,3
-4.235294,-2.823529,-40.941176,-0.007843,-0.007843,-0.007843,-1.960784,-1.960784,-1.960784,3
-4.235294,-2.823529,-40.941176,-0.007843,-0.007843,0.007843,-1.960784,-1.960784,-1.960784,3
-4.235294,-2.823529,-40.941176,-0.007843,-0.007843,-0.007843,-1.960784,-1.960784,-1.960784,3
-4.235294,-2.823529,-40.941176,-0.007843,-0.007843,-0.007843,-1.960784,-1.960784,-1.960784,3
-4.235294,-2.823529,-40.941176,-0.007843,-0.023529,-0.007843,-1.960784,-1.960784,-1.960784,3
-4.235294,-2.823529,-40.941176,-0.007843,-0.007843,-0.007843,-1.960784,-1.960784,-1.960784,3
-4.235294,-2.823529,-40.941176,-0.007843,-0.007843,-0.007843,-1.960784,-1.960784,-1.960784,3
-4.235294,-2.823529,-40.941176,-0.007843,-0.007843,-0.007843,-1.960784,-1.960784,-1.960784,3
-4.235294,-2.823529,-40.941176,-0.007843,-0.023529,-0.007843,-1.960784,-1.960784,-1.960784,3
-4.235294,-2.823529,-40.941176,-0.007843,-0.023529,-0.007843,-1.960784,-1.960784,-1.960784,3
-4.235294,-2.823529,-40.941176,-0.007843,-0.007843,-0.007843,-1.960784,-1.960784,-1.960784,3
-4.235294,-2.823529,-40.941176,-0.007843,-0.007843,-0.007843,-1.960784,-1.960784,-1.960784,3
-4.235294,-2.823529,-40.941176,-0.007843,-0.007843,-0.007843,-1.960784,-1.960784,-1.960784,3
-4.235294,-2.823529,-40.941176,-0.007843,-0.007843,-0.007843,-1.960784,-1.960784,-1.960784,3
-4.235294,-2.823529,-40.941176,-0.007843,-0.007843,-0.007843,-1.960784,-1.960784,-1.960784,3
-4.235294,-2.823529,-40.941176,-0.007843,-0.007843,-0.007843,-1.960784,-1.960784,-1.960784,3
-4.235294,-2.823529,-40.941176,-0.007843,-0.007843,-0.007843,-1.960784,-1.960784,-1.960784,3
-4.235294,-2.823529,-40.941176,-0.007843,-0.007843,-0.007843,-1.960784,-1.960784,-1.960784,3
-4.235294,-2.823529,-40.941176,0.007843,-0.007843,-0.007843,-1.960784,-1.960784,-1.960784,3
-4.235294,-2.823529,-40.941176,-0.007843,-0.007843,-0.007843,-1.960784,-1.960784,-1.960784,3
-4.235294,-2.823529,-40.941176,-0.007843,-0.007843,0.007843,-1.960784,-1.960784,-1.960784,3
-4.235294,-2.823529,-40.941176,-0.007843,-0.007843,-0.023529,-1.960784,-1.960784,-1.960784,3
-4.235294,-2.823529,-39.529412,-0.007843,-0.007843,-0.007843,-1.960784,-1.960784,-1.960784,3
-4.235294,-2.823529,-39.529412,-0.007843,-0.007843,-0.007843,-1.960784,-1.960784,-1.960784,3
-4.235294,-2.823529,-39.529412,-0.007843,-0.007843,-0.007843,-1.960784,-1.960784,-1.960784,3
-4.235294,-2.823529,-39.529412,-0.007843,-0.007843,-0.007843,-1.960784,-1.960784,-1.960784,3
-4.235294,-2.823529,-39.529412,-0.007843,-0.007843,0.007843,-1.960784,-1.960784,-1.960784,3
-4.235294,-2.823529,-39.529412,-0.007843,-0.007843,-0.007843,-1.960784,-1.960784,-1.960784,3
-4.235294,-2.823529,-39.529412,-0.007843,-0.007843,0.007843,-1.960784,-1.960784,-1.960784,3
-4.235294,-2.823529,-39.529412,-0.007843,-0.007843,-0.007843,-1.960784,-1.960784,-1.960784,3
-4.235294,-2.823529,-39.529412,0.007843,-0.007843,-0.007843,-1.960784,-1.960784,-1.960784,3
-4.235294,-2.823529,-39.529412,-0.007843,-0.007843,-0.007843,-1.960784,-1.960784,-1.960784,3
-4.235294,-2.823529,-39.529412,-0.007843,-0.007843,-0.007843,-1.960784,-1.960784,-1.960784,3
-4.235294,-2.823529,-39.529412,-0.007843,-0.007843,-0.007843,-1.960784,-1.960784,-1.960784,3
-4.235294,-2.823529,-39.529412,-0.007843,-0.007843,-0.007843,-1.960784,-1.960784,-1.960784,3
-4.235294,-2.823529,-39.529412,-0.007843,-0.007843,-0.007843,-1.960784,-1.960784,-1.960784,3
-4.235294,-2.823529,-39.529412,-0.007843,-0.007843,-0.007843,-1.960784,-1.960784,-1.960784,3
-4.235294,-2.823529,-39.529412,-0.007843,-0.007843,-0.007843,-1.960784,-1.960784,-1.960784,3
-4.235294,-2.823529,-39.529412,-0.007843,-0.007843,-0.007843,-1.960784,-1.960784,-1.960784,3
-4.235294,-2.823529,-39.529412,-0.007843,-0.007843,-0.007843,-1.960784,-1.960784,-1.960784,3
-4.235294,-2.823529,-39.529412,0.007843,-0.007843,-0.007843,-1.960784,-1.960784,-1.960784,3
-4.235294,-2.823529,-39.529412,-0.007843,-0.007843,-0.007843,-1.960784,-1.960784,-1.960784,3
-4.235294,-2.823529,-39.529412,-0.007843,-0.007843,-0.007843,-1.960784,-1.960784,-1.960784,3
-4.235294,-2.823529,-39.529412,-0.007843,-0.007843,-0.007843,-1.960784,-1.960784,-1.960784,3
-4.235294,-2.823529,-39.529412,-0.007843,-0.007843,-0.007843,-1.960784,-1.960784,-1.960784,3
-4.235294,-2.823529,-39.529412,-0.007843,-0.007843,-0.007843,-1.960784,-1.960784,-1.960784,3
-4.235294,-2.823529,-39.529412,-0.007843,-0.023529,-0.007843,-1.960784,-1.960784,-1.960784,3
-4.235294,-2.823529,-39.529412,-0.007843,-0.007843,-0.007843,-1.960784,-1.960784,-1.960784,3
-4.235294,-2.823529,-39.529412,0.007843,-0.007843,-0.007843,-1.960784,-1.960784,-1.960784,3
-4.235294,-2.823529,-39.529412,-0.007843,-0.007843,-0.007843,-1.960784,-1.960784,-1.960784,3
-4.235294,-2.823529,-39.529412,-0.007843,-0.007843,0.007843,-1.960784,-1.960784,-1.960784,3
-4.235294,-2.823529,-39.529412,-0.007843,-0.007843,-0.007843,-1.960784,-1.960784,-1.960784,3
-4.235294,-2.823529,-39.529412,-0.007843,-0.007843,-0.007843,-1.960784,-1.960784,-1.960784,3
-4.235294,-2.823529,-39.529412,-0.007843,-0.007843,-0.007843,-1.960784,-1.960784,-1.960784,3
-4.235294,-2.823529,-39.529412,-0.007843,-0.007843,-0.007843,-1.960784,-1.960784,-1.960784,3
-4.235294,-2.823529,-39.529412,-0.007843,-0.007843,0.007843,-1.960784,-1.960784,-1.960784,3
-4.235294,-2.823529,-39.529412,-0.007843,-0.007843,-0.007843,-1.960784,-1.960784,-1.960784,3
-4.235294,-2.823529,-39.529412,-0.007843,-0.007843,-0.007843,-1.960784,-1.960784,-1.960784,3
-4.235294,-2.823529,-39.529412,-0.007843,-0.007843,-0.007843,-1.960784,-1.960784,-1.960784,3
-4.235294,-2.823529,-39.529412,-0.007843,-0.023529,-0.007843,-1.960784,-1.960784,-1.960784,3
-4.235294,-2.823529,-39.529412,-0.007843,-0.007843,-0.007843,-1.960784,-1.960784,-1.960784,3
-4.235294,-2.823529,-39.529412,-0.007843,-0.007843,-0.007843,-1.960784,-1.960784,-1.960784,3
-4.235294,-2.823529,-39.529412,-0.007843,-0.023529,-0.007843,-1.960784,-1.960784,-1.960784,3
-4.235294,-2.823529,-39.529412,-0.007843,-0.007843,-0.007843,-1.960784,-1.960784,-1.960784,3
-4.235294,-2.823529,-39.529412,-0.007843,-0.007843,-0.007843,-1.960784,-1.960784,-1.960784,3
-4.235294,-2.823529,-39.529412,-0.007843,-0.007843,-0.007843,-1.960784,-1.960784,-1.960784,3
-4.235294,-2.823529,-39.529412,-0.007843,-0.007843,-0.007843,-1.960784,-1.960784,-1.960784,3
-4.235294,-2.823529,-39.529412,-0.007843,-0.007843,-0.007843,-1.960784,-1.960784,-1.960784,3
-4.235294,-2.823529,-39.529412,-0.007843,-0.007843,-0.007843,-1.960784,-1.960784,-1.960784,3
-4.235294,-2.823529,-39.529412,0.007843,-0.007843,-0.007843,-1.960784,-1.960784,-1.960784,3
-4.235294,-2.823529,-39.529412,-0.007843,-0.007843,-0.007843,-1.960784,-1.960784,-1.960784,3
-4.235294,-2.823529,-39.529412,-0.007843,-0.023529,-0.007843,-1.960784,-1.960784,-1.960784,3
-4.235294,-2.823529,-39.529412,-0.007843,-0.007843,-0.007843,-1.960784,-1.960784,-1.960784,3
-4.235294,-2.823529,-39.529412,0.007843,-0.007843,-0.007843,-1.960784,-1.960784,-1.960784,3
-4.235294,-2.823529,-39.529412,-0.007843,-0.007843,-0.007843,-1.960784,-1.960784,-1.960784,3
-4.235294,-2.823529,-39.529412,-0.007843,-0.007843,-0.007843,-1.960784,-1.960784,-1.960784,3
-4.235294,-2.823529,-39.529412,-0.007843,-0.007843,-0.007843,-1.960784,-1.960784,-1.960784,3
-4.235294,-2.823529,-39.529412,-0.007843,-0.007843,-0.007843,-1.960784,-1.960784,-1.960784,3
-4.235294,-2.823529,-39.529412,-0.007843,-0.007843,-0.007843,-1.960784,-1.960784,-1.960784,3
-4.235294,-2.823529,-39.529412,-0.007843,-0.007843,-0.007843,-1.960784,-1.960784,-1.960784,3
-4.235294,-2.823529,-39.529412,-0.007843,-0.007843,-0.007843,-1.960784,-1.960784,-1.960784,3
-4.235294,-2.823529,-39.529412,-0.007843,-0.007843,-0.007843,-1.960784,-1.960784,-1.960784,3
-4.235294,-2.823529,-39.529412,-0.007843,-0.007843,-0.007843,-1.960784,-1.960784,-1.960784,3
-4.235294,-2.823529,-39.529412,-0.007843,-0.007843,-0.007843,-1.960784,-1.960784,-1.960784,3
-4.235294,-2.823529,-39.529412,-0.007843,-0.007843,-0.007843,-1.960784,-1.960784,-1.960784,3
-4.235294,-2.823529,-39.529412,-0.007843,-0.007843,-0.007843,-1.960784,-1.960784,-1.960784,3
-4.235294,-2.823529,-39.529412,-0.007843,-0.007843,-0.007843,-1.960784,-1.960784,-1.960784,3
-4.235294,-2.823529,-39.529412,-0.007843,-0.007843,-0.007843,-1.960784,-1.960784,-1.960784,3
-4.235294,-2.823529,-39.529412,-0.007843,-0.007843,0.007843,-1.960784,-1.960784,-1.960784,3
-4.235294,-2.823529,-39.529412,-0.007843,-0.007843,-0.007843,-1.960784,-1.960784,-1.960784,3
-4.235294,-2.823529,-39.529412,-0.007843,-0.007843,-0.007843,-1.960784,-1.960784,-1.960784,3
-4.235294,-2.823529,-39.529412,-0.007843,-0.007843,-0.007843,-1.960784,-1.960784,-1.960784,3
-4.235294,-2.823529,-39.529412,-0.007843,-0.007843,-0.007843,-1.960784,-1.960784,-1.960784,3
-4.235294,-2.823529,-39.529412,-0.007843,-0.007843,-0.007843,-1.960784,-1.960784,-1.960784,3
-4.235294,-2.823529,-39.529412,-0.007843,-0.007843,-0.007843,-1.960784,-1.960784,-1.960784,3
-4.235294,-2.823529,-39.529412,-0.007843,-0.007843,-0.007843,-1.960784,-1.960784,-1.960784,3
-4.235294,-2.823529,-39.529412,-0.007843,-0.007843,-0.007843,-1.960784,-1.960784,-1.960784,3
-4.235294,-2.823529,-39.529412,-0.007843,-0.007843,-0.007843,-1.960784,-1.960784,-1.960784,3
-4.235294,-2.823529,-39.529412,-0.007843,-0.007843,-0.007843,-1.960784,-1.960784,-1.960784,3
-4.235294,-2.823529,-39.529412,-0.007843,-0.007843,0.007843,-1.960784,-1.960784,-1.960784,3
-4.235294,-2.823529,-39.529412,-0.007843,-0.007843,-0.007843,-1.960784,-1.960784,-1.960784,3
-4.235294,-2.823529,-39.529412,-0.007843,-0.007843,-0.007843,-1.960784,-1.960784,-1.960784,3
-4.235294,-2.823529,-39.529412,-0.007843,-0.007843,-0.007843,-1.960784,-1.960784,-1.960784,3
-4.235294,-2.823529,-39.529412,-0.007843,-0.007843,-0.007843,-1.960784,-1.960784,-1.960784,3
-4.235294,-2.823529,-39.529412,-0.007843,-0.007843,-0.007843,-1.960784,-1.960784,-1.960784,3
-4.235294,-2.823529,-39.529412,-0.007843,-0.007843,-0.007843,-1.960784,-1.960784,-1.960784,3
-4.235294,-2.823529,-39.529412,-0.007843,-0.007843,-0.007843,-1.960784,-1.960784,-1.960784,3
-4.235294,-2.823529,-39.529412,-0.007843,-0.007843,-0.007843,-1.960784,-1.960784,-1.960784,3
-4.235294,-2.823529,-39.529412,-0.007843,-0.007843,-0.007843,-1.960784,-1.960784,-1.960784,3
-4.235294,-2.823529,-39.529412,-0.007843,-0.007843,-0.007843,-1.960784,-1.960784,-1.960784,3
-4.235294,-2.823529,-39.529412,-0.007843,-0.007843,-0.007843,-1.960784,-1.960784,-1.960784,3
-4.235294,-2.823529,-39.529412,-0.007843,-0.007843,-0.007843,-1.960784,-1.960784,-1.960784,3
-4.235294,-2.823529,-39.529412,-0.007843,-0.023529,-0.007843,-1.960784,-1.960784,-1.960784,3
-4.235294,-2.823529,-39.529412,-0.007843,-0.007843,-0.007843,-1.960784,-1.960784,-1.960784,3
-4.235294,-2.823529,-39.529412,-0.007843,-0.007843,-0.007843,-1.960784,-1.960784,-1.960784,3
-4.235294,-2.823529,-39.529412,-0.007843,-0.007843,-0.007843,-1.960784,-1.960784,-1.960784,3
-4.235294,-2.823529,-39.529412,-0.007843,-0.007843,-0.007843,-1.960784,-1.960784,-1.960784,3
-4.235294,-2.823529,-39.529412,-0.007843,-0.007843,-0.007843,-1.960784,-1.960784,-1.960784,3
-4.235294,-2.823529,-39.529412,-0.007843,-0.007843,-0.007843,-1.960784,-1.960784,-1.960784,3
-4.235294,-2.823529,-39.529412,-0.007843,-0.007843,-0.007843,-1.960784,-1.960784,-1.960784,3
-4.235294,-2.823529,-39.529412,-0.007843,-0.007843,-0.007843,-1.960784,-1.960784,-1.960784,3
-4.235294,-2.823529,-39.529412,-0.007843,-0.007843,-0.007843,-1.960784,-1.960784,-1.960784,3
-4.235294,-2.823529,-39.529412,-0.007843,-0.007843,-0.007843,-1.960784,-1.960784,-1.960784,3
-4.235294,-2.823529,-39.529412,-0.007843,-0.007843,-0.007843,-1.960784,-1.960784,-1.960784,3
-4.235294,-2.823529,-39.529412,-0.007843,-0.007843,-0.007843,-1.960784,-1.960784,-1.960784,3
-4.235294,-2.823529,-39.529412,-0.007843,-0.007843,-0.007843,-1.960784,-1.960784,-1.960784,3
-4.235294,-2.823529,-39.529412,-0.007843,-0.007843,-0.007843,-1.960784,-1.960784,-1.960784,3
-4.235294,-2.823529,-39.529412,-0.007843,-0.007843,-0.007843,-1.960784,-1.960784,-1.960784,3
-4.235294,-2.823529,-39.529412,-0.007843,-0.007843,-0.007843,-1.960784,-1.960784,-1.960784,3
-4.235294,-2.823529,-39.529412,-0.007843,-0.007843,-0.007843,-1.960784,-1.960784,-1.960784,3
-4.235294,-2.823529,-39.529412,-0.007843,-0.007843,-0.007843,-1.960784,-1.960784,-1.960784,3
-4.235294,-2.823529,-39.529412,-0.007843,-0.007843,-0.007843,-1.960784,-1.960784,-1.960784,3
-4.235294,-2.823529,-39.529412,-0.007843,-0.007843,-0.007843,-1.960784,-1.960784,-1.960784,3
-4.235294,-2.823529,-39.529412,-0.007843,-0.007843,-0.007843,-1.960784,-1.960784,-1.960784,3
-4.235294,-2.823529,-39.529412,0.007843,-0.007843,-0.007843,-1.960784,-1.960784,-1.960784,3
-4.235294,-2.823529,-39.529412,-0.007843,-0.007843,-0.007843,-1.960784,-1.960784,-1.960784,3
-4.235294,-2.823529,-39.529412,-0.007843,-0.007843,-0.007843,-1.960784,-1.960784,-1.960784,3
-4.235294,-2.823529,-39.529412,-0.007843,-0.007843,-0.007843,-1.960784,-1.960784,-1.960784,3
-4.235294,-2.823529,-39.529412,-0.007843,-0.007843,-0.007843,-1.960784,-1.960784,-1.960784,3
-4.235294,-2.823529,-39.529412,-0.007843,-0.007843,-0.007843,-1.960784,-1.960784,-1.960784,3
-4.235294,-2.823529,-39.529412,-0.007843,-0.007843,-0.007843,-1.960784,-1.960784,-1.960784,3
-4.235294,-2.823529,-39.529412,-0.007843,-0.007843,-0.007843,-1.960784,-1.960784,-1.960784,3
-4.235294,-2.823529,-39.529412,-0.007843,-0.007843,-0.007843,-1.960784,-1.960784,-1.960784,3
-4.235294,-2.823529,-38.117647,-0.007843,-0.007843,-0.007843,-1.960784,-1.960784,-1.960784,3
-4.235294,-2.823529,-38.117647,-0.007843,-0.007843,-0.007843,-1.960784,-1.960784,-1.960784,3
-4.235294,-2.823529,-38.117647,-0.007843,-0.007843,-0.007843,-1.960784,-1.960784,-1.960784,3
-4.235294,-2.823529,-38.117647,-0.007843,-0.023529,-0.007843,-1.960784,-1.960784,-1.960784,3
-4.235294,-2.823529,-38.117647,-0.007843,-0.007843,-0.007843,-1.960784,-1.960784,-1.960784,3
-4.235294,-2.823529,-38.117647,-0.007843,-0.007843,-0.007843,-1.960784,-1.960784,-1.960784,3
-4.235294,-2.823529,-38.117647,-0.007843,-0.007843,-0.007843,-1.960784,-1.960784,-1.960784,3
-4.235294,-2.823529,-38.117647,-0.007843,-0.007843,-0.007843,-1.960784,-1.960784,-1.960784,3
-4.235294,-2.823529,-38.117647,-0.007843,-0.023529,-0.007843,-1.960784,-1.960784,-1.960784,3
-4.235294,-2.823529,-38.117647,-0.007843,-0.007843,-0.007843,-1.960784,-1.960784,-1.960784,3
-4.235294,-2.823529,-38.117647,-0.007843,-0.007843,-0.007843,-1.960784,-1.960784,-1.960784,3
-4.235294,-2.823529,-38.117647,-0.007843,-0.007843,-0.007843,-1.960784,-1.960784,-1.960784,3
-4.235294,-2.823529,-38.117647,-0.007843,-0.007843,-0.007843,-1.960784,-1.960784,-1.960784,3
-4.235294,-2.823529,-38.117647,-0.007843,-0.007843,-0.007843,-1.960784,-1.960784,-1.960784,3
-4.235294,-2.823529,-38.117647,-0.007843,-0.007843,-0.007843,-1.960784,-1.960784,-1.960784,3
-4.235294,-2.823529,-38.117647,-0.007843,-0.007843,-0.007843,-1.960784,-1.960784,-1.960784,3
-4.235294,-2.823529,-38.117647,0.007843,-0.007843,-0.007843,-1.960784,-1.960784,-1.960784,3
-4.235294,-2.823529,-38.117647,-0.007843,-0.007843,-0.007843,-1.960784,-1.960784,-1.960784,3
-4.235294,-2.823529,-38.117647,-0.007843,-0.007843,-0.007843,-1.960784,-1.960784,-1.960784,3
-4.235294,-2.823529,-38.117647,-0.007843,-0.007843,-0.007843,-1.960784,-1.960784,-1.960784,3
-4.235294,-2.823529,-38.117647,-0.007843,-0.007843,-0.007843,-1.960784,-1.960784,-1.960784,3
-4.235294,-2.823529,-38.117647,-0.007843,-0.007843,-0.007843,-1.960784,-1.960784,-1.960784,3
-4.235294,-2.823529,-38.117647,-0.007843,-0.007843,-0.007843,-1.960784,-1.960784,-1.960784,3
-4.235294,-2.823529,-38.117647,-0.007843,-0.007843,-0.007843,-1.960784,-1.960784,-1.960784,3
-4.235294,-2.823529,-38.117647,-0.007843,-0.007843,-0.007843,-1.960784,-1.960784,-1.960784,3
-4.235294,-2.823529,-38.117647,-0.007843,-0.007843,-0.007843,-1.960784,-1.960784,-1.960784,3
-4.235294,-2.823529,-38.117647,-0.007843,-0.007843,-0.007843,-1.960784,-1.960784,-1.960784,3
-4.235294,-2.823529,-38.117647,-0.007843,-0.007843,-0.007843,-1.960784,-1.960784,-1.960784,3
-4.235294,-2.823529,-38.117647,-0.007843,-0.007843,-0.007843,-1.960784,-1.960784,-1.960784,3
-4.235294,-2.823529,-38.117647,-0.007843,-0.007843,-0.007843,-1.960784,-1.960784,-1.960784,3
-4.235294,-2.823529,-38.117647,-0.007843,-0.007843,-0.007843,-1.960784,-1.960784,-1.960784,3
-4.235294,-2.823529,-38.117647,-0.007843,-0.007843,-0.007843,-1.960784,-1.960784,-1.960784,3
-4.235294,-2.823529,-38.117647,-0.007843,-0.007843,-0.007843,-1.960784,-1.960784,-1.960784,3
-4.235294,-2.823529,-38.117647,-0.007843,-0.007843,-0.007843,-1.960784,-1.960784,-1.960784,3
-4.235294,-2.823529,-38.117647,-0.007843,-0.007843,-0.007843,-1.960784,-1.960784,-1.960784,3
-4.235294,-2.823529,-38.117647,-0.007843,-0.007843,-0.007843,-1.960784,-1.960784,-1.960784,3
-4.235294,-2.823529,-38.117647,-0.007843,-0.007843,-0.007843,-1.960784,-1.960784,-1.960784,3
-4.235294,-2.823529,-38.117647,-0.007843,-0.007843,-0.007843,-1.960784,-1.960784,-1.960784,3
-4.235294,-2.823529,-38.117647,-0.007843,-0.007843,-0.007843,-1.960784,-1.960784,-1.960784,3
-4.235294,-2.823529,-38.117647,-0.007843,-0.007843,-0.007843,-1.960784,-1.960784,-1.960784,3
-4.235294,-2.823529,-38.117647,-0.007843,-0.007843,-0.007843,-1.960784,-1.960784,-1.960784,3
-4.235294,-2.823529,-38.117647,-0.007843,-0.007843,-0.007843,-1.960784,-1.960784,-1.960784,3
-4.235294,-2.823529,-38.117647,-0.007843,-0.007843,-0.007843,-1.960784,-1.960784,-1.960784,3
-4.235294,-2.823529,-38.117647,-0.007843,-0.007843,-0.007843,-1.960784,-1.960784,-1.960784,3
-4.235294,-2.823529,-38.117647,-0.007843,-0.007843,-0.007843,-1.960784,-1.960784,-1.960784,3
-4.235294,-2.823529,-38.117647,-0.007843,-0.007843,0.007843,-1.960784,-1.960784,-1.960784,3
-4.235294,-2.823529,-38.117647,-0.007843,-0.007843,-0.007843,-1.960784,-1.960784,-1.960784,3
-4.235294,-2.823529,-38.117647,-0.007843,-0.007843,-0.007843,-1.960784,-1.960784,-1.960784,3
-4.235294,-2.823529,-38.117647,-0.007843,-0.023529,-0.007843,-1.960784,-1.960784,-1.960784,3
-4.235294,-2.823529,-38.117647,-0.007843,-0.007843,-0.007843,-1.960784,-1.960784,-1.960784,3
-4.235294,-2.823529,-38.117647,-0.007843,-0.007843,-0.007843,-1.960784,-1.960784,-1.960784,3
-4.235294,-2.823529,-38.117647,-0.007843,-0.007843,-0.007843,-1.960784,-1.960784,-1.960784,3
-4.235294,-2.823529,-38.117647,-0.007843,-0.023529,-0.007843,-1.960784,-1.960784,-1.960784,3
-4.235294,-2.823529,-38.117647,-0.007843,-0.007843,-0.007843,-1.960784,-1.960784,-1.960784,3
-4.235294,-2.823529,-38.117647,-0.007843,-0.007843,-0.007843,-1.960784,-1.960784,-1.960784,3
-4.235294,-2.823529,-38.117647,-0.007843,-0.007843,-0.007843,-1.960784,-1.960784,-1.960784,3
-4.235294,-2.823529,-38.117647,-0.007843,-0.023529,-0.007843,-1.960784,-1.960784,-1.960784,3
-4.235294,-2.823529,-38.117647,-0.007843,-0.007843,-0.007843,-1.960784,-1.960784,-1.960784,3
-4.235294,-2.823529,-38.117647,0.007843,-0.007843,-0.007843,-1.960784,-1.960784,-1.960784,3
-4.235294,-2.823529,-38.117647,-0.007843,-0.007843,-0.007843,-1.960784,-1.960784,-1.960784,3
-4.235294,-2.823529,-38.117647,0.007843,-0.007843,-0.007843,-1.960784,-1.960784,-1.960784,3
-4.235294,-2.823529,-38.117647,-0.007843,-0.007843,-0.007843,-1.960784,-1.960784,-1.960784,3
-4.235294,-2.823529,-38.117647,0.007843,-0.007843,-0.007843,-1.960784,-1.960784,-1.960784,3
-4.235294,-2.823529,-38.117647,-0.007843,-0.007843,-0.007843,-1.960784,-1.960784,-1.960784,3
-4.235294,-2.823529,-38.117647,-0.007843,-0.007843,-0.007843,-1.960784,-1.960784,-1.960784,3
-4.235294,-2.823529,-38.117647,-0.007843,-0.007843,-0.007843,-1.960784,-1.960784,-1.960784,3
-4.235294,-2.823529,-38.117647,-0.007843,-0.007843,-0.007843,-1.960784,-1.960784,-1.960784,3
-4.235294,-2.823529,-38.117647,-0.007843,-0.007843,-0.007843,-1.960784,-1.960784,-1.960784,3
-4.235294,-2.823529,-38.117647,-0.007843,-0.007843,-0.007843,-1.960784,-1.960784,-1.960784,3
-4.235294,-2.823529,-38.117647,-0.007843,-0.007843,-0.007843,-1.960784,-1.960784,-1.960784,3
-4.235294,-2.823529,-38.117647,-0.007843,-0.007843,-0.007843,-1.960784,-1.960784,-1.960784,3
-4.235294,-2.823529,-38.117647,-0.007843,-0.007843,-0.007843,-1.960784,-1.960784,-1.960784,3
-4.235294,-2.823529,-38.117647,-0.007843,-0.007843,-0.007843,-1.960784,-1.960784,-1.960784,3
-4.235294,-2.823529,-38.117647,-0.007843,-0.007843,-0.007843,-1.960784,-1.960784,-1.960784,3
-4.235294,-2.823529,-38.117647,-0.007843,-0.007843,-0.007843,-1.960784,-1.960784,-1.960784,3
-4.235294,-2.823529,-38.117647,-0.007843,-0.007843,-0.007843,-1.960784,-1.960784,-1.960784,3
-4.235294,-2.823529,-38.117647,-0.007843,-0.007843,-0.007843,-1.960784,-1.960784,-1.960784,3
-4.235294,-2.823529,-38.117647,-0.007843,-0.007843,-0.007843,-1.960784,-1.960784,-1.960784,3
-4.235294,-2.823529,-38.117647,-0.007843,-0.007843,-0.007843,-1.960784,-1.960784,-1.960784,3
-4.235294,-2.823529,-38.117647,-0.007843,-0.007843,-0.007843,-1.960784,-1.960784,-1.960784,3
-4.235294,-2.823529,-38.117647,-0.007843,-0.023529,-0.007843,-1.960784,-1.960784,-1.960784,3
-4.235294,-2.823529,-38.117647,-0.007843,-0.007843,-0.007843,-1.960784,-1.960784,-1.960784,3
-4.235294,-2.823529,-38.117647,-0.007843,-0.007843,-0.007843,-1.960784,-1.960784,-1.960784,3
-4.235294,-2.823529,-38.117647,-0.007843,-0.007843,-0.007843,-1.960784,-1.960784,-1.960784,3
-4.235294,-2.823529,-38.117647,-0.007843,-0.007843,-0.007843,-1.960784,-1.960784,-1.960784,3
-4.235294,-2.823529,-38.117647,-0.007843,-0.007843,-0.007843,-1.960784,-1.960784,-1.960784,3
-4.235294,-2.823529,-38.117647,-0.007843,-0.007843,-0.007843,-1.960784,-1.960784,-1.960784,3
-4.235294,-2.823529,-38.117647,-0.007843,-0.007843,-0.007843,-1.960784,-1.960784,-1.960784,3
-4.235294,-2.823529,-38.117647,-0.007843,-0.007843,-0.007843,-1.960784,-1.960784,-1.960784,3
-4.235294,-2.823529,-38.117647,-0.007843,-0.007843,-0.007843,-1.960784,-1.960784,-1.960784,3
-4.235294,-2.823529,-38.117647,-0.007843,-0.007843,-0.007843,-1.960784,-1.960784,-1.960784,3
-4.235294,-2.823529,-38.117647,-0.007843,-0.007843,-0.007843,-1.960784,-1.960784,-1.960784,3
-4.235294,-2.823529,-38.117647,-0.007843,-0.007843,-0.007843,-1.960784,-1.960784,-1.960784,3
-4.235294,-2.823529,-38.117647,-0.007843,-0.007843,-0.007843,-1.960784,-1.960784,-1.960784,3
-4.235294,-2.823529,-38.117647,-0.007843,-0.007843,-0.007843,-1.960784,-1.960784,-1.960784,3
-4.235294,-2.823529,-38.117647,-0.007843,-0.007843,-0.007843,-1.960784,-1.960784,-1.960784,3
-4.235294,-2.823529,-38.117647,-0.007843,-0.007843,-0.007843,-1.960784,-1.960784,-1.960784,3
-4.235294,-2.823529,-38.117647,-0.007843,-0.007843,-0.007843,-1.960784,-1.960784,-1.960784,3
-4.235294,-2.823529,-38.117647,-0.007843,-0.007843,-0.007843,-1.960784,-1.960784,-1.960784,3
-4.235294,-2.823529,-38.117647,-0.007843,-0.007843,-0.007843,-1.960784,-1.960784,-1.960784,3
-4.235294,-2.823529,-38.117647,-0.007843,-0.007843,-0.023529,-1.960784,-1.960784,-1.960784,3
-4.235294,-2.823529,-38.117647,-0.007843,-0.007843,-0.007843,-1.960784,-1.960784,-1.960784,3
-4.235294,-2.823529,-38.117647,-0.007843,-0.007843,-0.007843,-1.960784,-1.960784,-1.960784,3
-4.235294,-2.823529,-38.117647,-0.007843,-0.007843,-0.007843,-1.960784,-1.960784,-1.960784,3
-4.235294,-2.823529,-38.117647,-0.007843,-0.007843,-0.007843,-1.960784,-1.960784,-1.960784,3
-4.235294,-2.823529,-38.117647,-0.007843,-0.007843,-0.007843,-1.960784,-1.960784,-1.960784,3
-4.235294,-2.823529,-38.117647,-0.007843,-0.007843,-0.007843,-1.960784,-1.960784,-1.960784,3
-4.235294,-2.823529,-38.117647,-0.007843,-0.007843,-0.007843,-1.960784,-1.960784,-1.960784,3
-4.235294,-2.823529,-38.117647,-0.007843,-0.007843,-0.007843,-1.960784,-1.960784,-1.960784,3
-4.235294,-2.823529,-38.117647,-0.007843,-0.007843,-0.007843,-1.960784,-1.960784,-1.960784,3
-4.235294,-2.823529,-38.117647,-0.007843,-0.007843,-0.007843,-1.960784,-1.960784,-1.960784,3
-4.235294,-2.823529,-38.117647,-0.007843,-0.007843,-0.007843,-1.960784,-1.960784,-1.960784,3
-4.235294,-2.823529,-38.117647,-0.007843,-0.007843,-0.007843,-1.960784,-1.960784,-1.960784,3
-4.235294,-2.823529,-38.117647,-0.007843,-0.007843,-0.007843,-1.960784,-1.960784,-1.960784,3
-4.235294,-2.823529,-38.117647,-0.007843,-0.007843,-0.007843,-1.960784,-1.960784,-1.960784,3
-4.235294,-2.823529,-38.117647,0.007843,-0.007843,-0.007843,-1.960784,-1.960784,-1.960784,3
-4.235294,-2.823529,-38.117647,-0.007843,-0.007843,-0.007843,-1.960784,-1.960784,-1.960784,3
-4.235294,-2.823529,-38.117647,-0.007843,-0.007843,-0.007843,-1.960784,-1.960784,-1.960784,3
-4.235294,-2.823529,-38.117647,-0.007843,-0.007843,-0.007843,-1.960784,-1.960784,-1.960784,3
-4.235294,-2.823529,-38.117647,-0.007843,-0.007843,-0.007843,-1.960784,-1.960784,-1.960784,3
-4.235294,-2.823529,-38.117647,-0.007843,-0.007843,-0.007843,-1.960784,-1.960784,-1.960784,3
-4.235294,-2.823529,-38.117647,-0.007843,-0.007843,-0.007843,-1.960784,-1.960784,-1.960784,3
-4.235294,-2.823529,-38.117647,-0.007843,-0.007843,-0.007843,-1.960784,-1.960784,-1.960784,3
-4.235294,-2.823529,-38.117647,-0.007843,-0.007843,-0.007843,-1.960784,-1.960784,-1.960784,3
-4.235294,-2.823529,-38.117647,-0.007843,-0.007843,-0.007843,-1.960784,-1.960784,-1.960784,3
-4.235294,-2.823529,-38.117647,-0.007843,-0.007843,-0.007843,-1.960784,-1.960784,-1.960784,3
-4.235294,-2.823529,-36.705882,-0.007843,-0.007843,-0.007843,-1.960784,-1.960784,-1.960784,3
-4.235294,-2.823529,-36.705882,-0.007843,-0.007843,-0.007843,-1.960784,-1.960784,-1.960784,3
-4.235294,-2.823529,-36.705882,-0.007843,-0.007843,-0.007843,-1.960784,-1.960784,-1.960784,3
-4.235294,-2.823529,-36.705882,-0.007843,-0.007843,-0.007843,-1.960784,-1.960784,-1.960784,3
-4.235294,-2.823529,-36.705882,-0.007843,-0.007843,-0.007843,-1.960784,-1.960784,-1.960784,3
-4.235294,-2.823529,-36.705882,-0.007843,-0.007843,-0.007843,-1.960784,-1.960784,-1.960784,3
-4.235294,-2.823529,-36.705882,-0.007843,-0.007843,-0.007843,-1.960784,-1.960784,-1.960784,3
-4.235294,-2.823529,-36.705882,-0.007843,-0.007843,0.007843,-1.960784,-1.960784,-1.960784,3
-4.235294,-2.823529,-36.705882,-0.007843,-0.007843,-0.007843,-1.960784,-1.960784,-1.960784,3
-4.235294,-2.823529,-36.705882,-0.007843,-0.007843,-0.007843,-1.960784,-1.960784,-1.960784,3
-4.235294,-2.823529,-36.705882,-0.007843,-0.007843,-0.007843,-1.960784,-1.960784,-1.960784,3
-4.235294,-2.823529,-36.705882,-0.007843,-0.007843,-0.007843,-1.960784,-1.960784,-1.960784,3
-4.235294,-2.823529,-36.705882,-0.007843,-0.007843,-0.007843,-1.960784,-1.960784,-1.960784,3
-4.235294,-2.823529,-36.705882,-0.007843,-0.007843,-0.007843,-1.960784,-1.960784,-1.960784,3
-4.235294,-2.823529,-36.705882,-0.007843,-0.007843,-0.007843,-1.960784,-1.960784,-1.960784,3
-4.235294,-2.823529,-36.705882,-0.007843,-0.007843,-0.007843,-1.960784,-1.960784,-1.960784,3
-4.235294,-2.823529,-36.705882,-0.007843,-0.007843,-0.007843,-1.960784,-1.960784,-1.960784,3
-4.235294,-2.823529,-36.705882,-0.007843,-0.007843,-0.007843,-1.960784,-1.960784,-1.960784,3
-4.235294,-2.823529,-36.705882,-0.007843,-0.007843,-0.007843,-1.960784,-1.960784,-1.960784,3
-4.235294,-2.823529,-36.705882,-0.007843,-0.007843,-0.007843,-1.960784,-1.960784,-1.960784,3
-4.235294,-2.823529,-36.705882,-0.007843,-0.007843,-0.007843,-1.960784,-1.960784,-1.960784,3
-4.235294,-2.823529,-36.705882,-0.007843,-0.007843,-0.007843,-1.960784,-1.960784,-1.960784,3
-4.235294,-2.823529,-36.705882,-0.007843,-0.007843,-0.007843,-1.960784,-1.960784,-1.960784,3
-4.235294,-2.823529,-36.705882,-0.007843,-0.007843,-0.007843,-1.960784,-1.960784,-1.960784,3
-4.235294,-2.823529,-36.705882,-0.007843,-0.007843,-0.007843,-1.960784,-1.960784,-1.960784,3
-4.235294,-2.823529,-36.705882,-0.007843,-0.007843,-0.007843,-1.960784,-1.960784,-1.960784,3
-4.235294,-2.823529,-36.705882,-0.007843,-0.007843,-0.007843,-1.960784,-1.960784,-1.960784,3
-4.235294,-2.823529,-36.705882,-0.007843,-0.007843,-0.007843,-1.960784,-1.960784,-1.960784,3
-4.235294,-2.823529,-36.705882,-0.007843,-0.007843,-0.007843,-1.960784,-1.960784,-1.960784,3
-4.235294,-2.823529,-36.705882,-0.007843,-0.007843,-0.007843,-1.960784,-1.960784,-1.960784,3
-4.235294,-2.823529,-36.705882,-0.007843,-0.007843,-0.007843,-1.960784,-1.960784,-1.960784,3
-4.235294,-2.823529,-36.705882,-0.007843,-0.007843,-0.007843,-1.960784,-1.960784,-1.960784,3
-4.235294,-2.823529,-36.705882,-0.007843,-0.007843,-0.007843,-1.960784,-1.960784,-1.960784,3
-4.235294,-2.823529,-36.705882,-0.007843,-0.007843,-0.007843,-1.960784,-1.960784,-1.960784,3
-4.235294,-2.823529,-36.705882,-0.007843,-0.007843,-0.007843,-1.960784,-1.960784,-1.960784,3
-4.235294,-2.823529,-36.705882,-0.007843,-0.007843,-0.007843,-1.960784,-1.960784,-1.960784,3
-4.235294,-2.823529,-36.705882,-0.007843,-0.007843,-0.007843,-1.960784,-1.960784,-1.960784,3
-4.235294,-2.823529,-36.705882,-0.007843,-0.007843,-0.007843,-1.960784,-1.960784,-1.960784,3
-4.235294,-2.823529,-36.705882,-0.007843,-0.007843,-0.007843,-1.960784,-1.960784,-1.960784,3
-4.235294,-2.823529,-36.705882,-0.007843,-0.007843,-0.007843,-1.960784,-1.960784,-1.960784,3
-4.235294,-2.823529,-36.705882,-0.007843,-0.007843,-0.007843,-1.960784,-1.960784,-1.960784,3
-4.235294,-2.823529,-36.705882,-0.007843,-0.007843,-0.007843,-1.960784,-1.960784,-1.960784,3
-4.235294,-2.823529,-36.705882,-0.007843,-0.007843,-0.007843,-1.960784,-1.960784,-1.960784,3
-4.235294,-2.823529,-36.705882,-0.007843,-0.007843,-0.007843,-1.960784,-1.960784,-1.960784,3
-4.235294,-2.823529,-36.705882,-0.007843,-0.007843,-0.007843,-1.960784,-1.960784,-1.960784,3
-4.235294,-2.823529,-36.705882,-0.007843,-0.007843,-0.007843,-1.960784,-1.960784,-1.960784,3
-4.235294,-2.823529,-36.705882,0.007843,-0.007843,-0.007843,-1.960784,-1.960784,-1.960784,3
-4.235294,-2.823529,-36.705882,-0.007843,-0.007843,-0.007843,-1.960784,-1.960784,-1.960784,3
-4.235294,-2.823529,-36.705882,-0.007843,-0.007843,-0.007843,-1.960784,-1.960784,-1.960784,3
-4.235294,-2.823529,-36.705882,-0.007843,-0.007843,0.007843,-1.960784,-1.960784,-1.960784,3
-4.235294,-2.823529,-36.705882,-0.007843,-0.007843,-0.007843,-1.960784,-1.960784,-1.960784,3
-4.235294,-2.823529,-36.705882,-0.007843,-0.007843,-0.007843,-1.960784,-1.960784,-1.960784,3
-4.235294,-2.823529,-36.705882,-0.007843,-0.007843,-0.007843,-1.960784,-1.960784,-1.960784,3
-4.235294,-2.823529,-36.705882,-0.007843,-0.023529,-0.007843,-1.960784,-1.960784,-1.960784,3
-4.235294,-2.823529,-36.705882,-0.007843,-0.007843,-0.007843,-1.960784,-1.960784,-1.960784,3
-4.235294,-2.823529,-36.705882,-0.007843,-0.007843,-0.007843,-1.960784,-1.960784,-1.960784,3
-4.235294,-2.823529,-36.705882,0.007843,-0.007843,-0.007843,-1.960784,-1.960784,-1.960784,3
-4.235294,-2.823529,-36.705882,-0.007843,-0.007843,-0.007843,-1.960784,-1.960784,-1.960784,3
-4.235294,-2.823529,-36.705882,-0.007843,-0.007843,-0.007843,-1.960784,-1.960784,-1.960784,3
-4.235294,-2.823529,-36.705882,-0.007843,-0.007843,-0.007843,-1.960784,-1.960784,-1.960784,3
-4.235294,-2.823529,-36.705882,-0.007843,-0.007843,-0.007843,-1.960784,-1.960784,-1.960784,3
-4.235294,-2.823529,-36.705882,-0.007843,-0.007843,-0.007843,-1.960784,-1.960784,-1.960784,3
-4.235294,-2.823529,-36.705882,-0.007843,-0.007843,-0.007843,-1.960784,-1.960784,-1.960784,3
-4.235294,-2.823529,-36.705882,-0.007843,-0.007843,-0.007843,-1.960784,-1.960784,-1.960784,3
-4.235294,-2.823529,-36.705882,-0.007843,-0.007843,-0.007843,-1.960784,-1.960784,-1.960784,3
-4.235294,-2.823529,-36.705882,-0.007843,-0.023529,-0.007843,-1.960784,-1.960784,-1.960784,3
-4.235294,-2.823529,-36.705882,-0.007843,-0.007843,-0.007843,-1.960784,-1.960784,-1.960784,3
-4.235294,-2.823529,-36.705882,-0.007843,-0.007843,-0.007843,-1.960784,-1.960784,-1.960784,3
-4.235294,-2.823529,-36.705882,-0.007843,-0.007843,-0.007843,-1.960784,-1.960784,-1.960784,3
-4.235294,-2.823529,-36.705882,-0.007843,-0.007843,-0.007843,-1.960784,-1.960784,-1.960784,3
-4.235294,-2.823529,-36.705882,-0.007843,-0.007843,-0.007843,-1.960784,-1.960784,-1.960784,3
-4.235294,-2.823529,-36.705882,-0.007843,-0.007843,0.007843,-1.960784,-1.960784,-1.960784,3
-4.235294,-2.823529,-36.705882,-0.007843,-0.007843,-0.007843,-1.960784,-1.960784,-1.960784,3
-4.235294,-2.823529,-36.705882,-0.007843,-0.007843,-0.007843,-1.960784,-1.960784,-1.960784,3
-4.235294,-2.823529,-36.705882,-0.007843,-0.007843,-0.007843,-1.960784,-1.960784,-1.960784,3
-4.235294,-2.823529,-36.705882,-0.007843,-0.007843,0.007843,-1.960784,-1.960784,-1.960784,3
-4.235294,-2.823529,-36.705882,-0.007843,-0.007843,-0.007843,-1.960784,-1.960784,-1.960784,3
-4.235294,-2.823529,-36.705882,-0.007843,-0.007843,-0.007843,-1.960784,-1.960784,-1.960784,3
-4.235294,-2.823529,-36.705882,-0.007843,-0.007843,-0.007843,-1.960784,-1.960784,-1.960784,3
-4.235294,-2.823529,-36.705882,-0.007843,-0.007843,-0.007843,-1.960784,-1.960784,-1.960784,3
-4.235294,-2.823529,-36.705882,-0.007843,-0.007843,-0.007843,-1.960784,-1.960784,-1.960784,3
-4.235294,-2.823529,-36.705882,-0.007843,-0.007843,-0.007843,-1.960784,-1.960784,-1.960784,3
-4.235294,-2.823529,-36.705882,-0.007843,-0.007843,-0.007843,-1.960784,-1.960784,-1.960784,3
-4.235294,-2.823529,-36.705882,-0.007843,-0.007843,-0.007843,-1.960784,-1.960784,-1.960784,3
-4.235294,-2.823529,-36.705882,-0.007843,-0.007843,-0.007843,-1.960784,-1.960784,-1.960784,3
-4.235294,-2.823529,-36.705882,-0.007843,-0.007843,-0.007843,-1.960784,-1.960784,-1.960784,3
-4.235294,-2.823529,-36.705882,0.007843,-0.007843,-0.007843,-1.960784,-1.960784,-1.960784,3
-4.235294,-2.823529,-36.705882,-0.007843,-0.007843,-0.007843,-1.960784,-1.960784,-1.960784,3
-4.235294,-2.823529,-36.705882,-0.007843,-0.007843,-0.007843,-1.960784,-1.960784,-1.960784,3
-4.235294,-2.823529,-36.705882,-0.007843,-0.007843,-0.007843,-1.960784,-1.960784,-1.960784,3
-4.235294,-2.823529,-36.705882,-0.007843,-0.007843,-0.007843,-1.960784,-1.960784,-1.960784,3
-4.235294,-2.823529,-36.705882,-0.007843,-0.007843,-0.007843,-1.960784,-1.960784,-1.960784,3
-4.235294,-2.823529,-36.705882,-0.007843,-0.007843,-0.007843,-1.960784,-1.960784,-1.960784,3
-4.235294,-2.823529,-36.705882,0.007843,-0.007843,-0.007843,-1.960784,-1.960784,-1.960784,3
-4.235294,-2.823529,-36.705882,-0.007843,-0.007843,-0.007843,-1.960784,-1.960784,-1.960784,3
-4.235294,-2.823529,-36.705882,-0.007843,-0.007843,-0.007843,-1.960784,-1.960784,-1.960784,3
-4.235294,-2.823529,-36.705882,-0.007843,-0.007843,-0.007843,-1.960784,-1.960784,-1.960784,3
-4.235294,-2.823529,-36.705882,-0.007843,-0.007843,-0.007843,-1.960784,-1.960784,-1.960784,3
-4.235294,-2.823529,-36.705882,-0.007843,-0.007843,-0.007843,-1.960784,-1.960784,-1.960784,3
-4.235294,-2.823529,-36.705882,-0.007843,-0.007843,-0.007843,-1.960784,-1.960784,-1.960784,3
-4.235294,-2.823529,-36.705882,0.007843,-0.007843,-0.007843,-1.960784,-1.960784,-1.960784,3
-4.235294,-2.823529,-36.705882,-0.007843,-0.007843,-0.007843,-1.960784,-1.960784,-1.960784,3
-4.235294,-2.823529,-36.705882,-0.007843,-0.007843,-0.007843,-1.960784,-1.960784,-1.960784,3
-4.235294,-2.823529,-36.705882,-0.007843,-0.007843,-0.007843,-1.960784,-1.960784,-1.960784,3
-4.235294,-2.823529,-36.705882,0.007843,-0.007843,-0.007843,-1.960784,-1.960784,-1.960784,3
-4.235294,-2.823529,-36.705882,-0.007843,-0.007843,-0.007843,-1.960784,-1.960784,-1.960784,3
-4.235294,-2.823529,-36.705882,-0.007843,-0.007843,-0.007843,-1.960784,-1.960784,-1.960784,3
-4.235294,-2.823529,-36.705882,-0.007843,-0.007843,-0.007843,-1.960784,-1.960784,-1.960784,3
-4.235294,-2.823529,-36.705882,-0.007843,-0.007843,-0.007843,-1.960784,-1.960784,-1.960784,3
-4.235294,-2.823529,-36.705882,-0.007843,-0.007843,-0.007843,-1.960784,-1.960784,-1.960784,3
-4.235294,-2.823529,-36.705882,-0.007843,-0.007843,-0.007843,-1.960784,-1.960784,-1.960784,3
-4.235294,-2.823529,-36.705882,-0.007843,-0.007843,-0.007843,-1.960784,-1.960784,-1.960784,3
-4.235294,-2.823529,-36.705882,-0.007843,-0.007843,-0.007843,-1.960784,-1.960784,-1.960784,3
-4.235294,-2.823529,-36.705882,-0.007843,-0.007843,-0.007843,-1.960784,-1.960784,-1.960784,3
-4.235294,-2.823529,-36.705882,-0.007843,-0.023529,-0.007843,-1.960784,-1.960784,-1.960784,3
-4.235294,-2.823529,-36.705882,-0.007843,-0.007843,-0.007843,-1.960784,-1.960784,-1.960784,3
-4.235294,-2.823529,-36.705882,-0.007843,-0.007843,-0.007843,-1.960784,-1.960784,-1.960784,3
-4.235294,-2.823529,-36.705882,-0.007843,-0.007843,-0.007843,-1.960784,-1.960784,-1.960784,3
-4.235294,-2.823529,-36.705882,-0.007843,-0.007843,-0.007843,-1.960784,-1.960784,-1.960784,3
-4.235294,-2.823529,-36.705882,-0.007843,-0.007843,-0.007843,-1.960784,-1.960784,-1.960784,3
-4.235294,-2.823529,-36.705882,-0.007843,-0.007843,-0.007843,-1.960784,-1.960784,-1.960784,3
-4.235294,-2.823529,-35.294118,-0.007843,-0.007843,-0.007843,-1.960784,-1.960784,-1.960784,3
-4.235294,-2.823529,-35.294118,-0.007843,-0.007843,-0.007843,-1.960784,-1.960784,-1.960784,3
-4.235294,-2.823529,-35.294118,-0.007843,-0.007843,-0.007843,-1.960784,-1.960784,-1.960784,3
-4.235294,-2.823529,-35.294118,-0.007843,-0.007843,-0.007843,-1.960784,-1.960784,-1.960784,3
-4.235294,-2.823529,-35.294118,-0.007843,-0.007843,-0.007843,-1.960784,-1.960784,-1.960784,3
-4.235294,-2.823529,-35.294118,-0.007843,-0.007843,-0.007843,-1.960784,-1.960784,-1.960784,3
-4.235294,-2.823529,-35.294118,-0.007843,-0.007843,-0.007843,-1.960784,-1.960784,-1.960784,3
-4.235294,-2.823529,-35.294118,-0.007843,-0.007843,-0.007843,-1.960784,-1.960784,-1.960784,3
-4.235294,-2.823529,-35.294118,-0.007843,-0.007843,-0.007843,-1.960784,-1.960784,-1.960784,3
-4.235294,-2.823529,-35.294118,-0.007843,-0.007843,-0.007843,-1.960784,-1.960784,-1.960784,3
-4.235294,-2.823529,-35.294118,-0.007843,-0.007843,-0.007843,-1.960784,-1.960784,-1.960784,3
-4.235294,-2.823529,-35.294118,-0.007843,-0.007843,-0.007843,-1.960784,-1.960784,-1.960784,3
-4.235294,-2.823529,-35.294118,-0.007843,-0.007843,-0.007843,-1.960784,-1.960784,-1.960784,3
-4.235294,-2.823529,-35.294118,-0.007843,-0.007843,-0.007843,-1.960784,-1.960784,-1.960784,3
-4.235294,-2.823529,-35.294118,-0.007843,-0.007843,-0.007843,-1.960784,-1.960784,-1.960784,3
-4.235294,-2.823529,-35.294118,-0.007843,-0.007843,-0.007843,-1.960784,-1.960784,-1.960784,3
-4.235294,-2.823529,-35.294118,-0.007843,-0.007843,-0.007843,-1.960784,-1.960784,-1.960784,3
-4.235294,-2.823529,-35.294118,-0.007843,-0.007843,-0.007843,-1.960784,-1.960784,-1.960784,3
-4.235294,-2.823529,-35.294118,-0.007843,-0.007843,-0.007843,-1.960784,-1.960784,-1.960784,3
-4.235294,-2.823529,-35.294118,-0.007843,-0.007843,-0.007843,-1.960784,-1.960784,-1.960784,3
-4.235294,-2.823529,-35.294118,-0.007843,-0.007843,-0.007843,-1.960784,-1.960784,-1.960784,3
-4.235294,-2.823529,-35.294118,-0.007843,-0.007843,-0.007843,-1.960784,-1.960784,-1.960784,3
-4.235294,-2.823529,-35.294118,-0.007843,-0.007843,-0.007843,-1.960784,-1.960784,-1.960784,3
-4.235294,-2.823529,-35.294118,-0.007843,-0.007843,-0.007843,-1.960784,-1.960784,-1.960784,3
-4.235294,-2.823529,-35.294118,-0.007843,-0.007843,-0.007843,-1.960784,-1.960784,-1.960784,3
-4.235294,-2.823529,-35.294118,-0.007843,-0.007843,-0.007843,-1.960784,-1.960784,-1.960784,3
-4.235294,-2.823529,-35.294118,-0.007843,-0.007843,-0.007843,-1.960784,-1.960784,-1.960784,3
-4.235294,-2.823529,-35.294118,-0.007843,-0.007843,-0.007843,-1.960784,-1.960784,-1.960784,3
-4.235294,-2.823529,-35.294118,-0.007843,-0.007843,-0.007843,-1.960784,-1.960784,-1.960784,3
-4.235294,-2.823529,-35.294118,-0.007843,-0.007843,-0.007843,-1.960784,-1.960784,-1.960784,3
-4.235294,-2.823529,-35.294118,-0.007843,-0.007843,-0.007843,-1.960784,-1.960784,-1.960784,3
-4.235294,-2.823529,-35.294118,-0.007843,-0.007843,-0.007843,-1.960784,-1.960784,-1.960784,3
-4.235294,-2.823529,-35.294118,-0.007843,-0.023529,-0.007843,-1.960784,-1.960784,-1.960784,3
-4.235294,-2.823529,-35.294118,-0.007843,-0.023529,-0.007843,-1.960784,-1.960784,-1.960784,3
-4.235294,-2.823529,-35.294118,0.007843,-0.007843,-0.007843,-1.960784,-1.960784,-1.960784,3
-4.235294,-2.823529,-35.294118,-0.007843,-0.007843,-0.007843,-1.960784,-1.960784,-1.960784,3
-4.235294,-2.823529,-35.294118,-0.007843,-0.007843,-0.007843,-1.960784,-1.960784,-1.960784,3
-4.235294,-2.823529,-35.294118,-0.007843,-0.007843,-0.007843,-1.960784,-1.960784,-1.960784,3
-4.235294,-2.823529,-35.294118,-0.007843,-0.007843,-0.007843,-1.960784,-1.960784,-1.960784,3
-4.235294,-2.823529,-35.294118,-0.007843,-0.007843,-0.007843,-1.960784,-1.960784,-1.960784,3
-4.235294,-2.823529,-35.294118,-0.007843,-0.007843,-0.007843,-1.960784,-1.960784,-1.960784,3
-4.235294,-2.823529,-35.294118,-0.007843,-0.007843,-0.007843,-1.960784,-1.960784,-1.960784,3
-4.235294,-2.823529,-35.294118,-0.007843,-0.007843,-0.007843,-1.960784,-1.960784,-1.960784,3
-4.235294,-2.823529,-35.294118,-0.007843,-0.007843,-0.007843,-1.960784,-1.960784,-1.960784,3
-4.235294,-2.823529,-35.294118,-0.007843,-0.007843,-0.007843,-1.960784,-1.960784,-1.960784,3
-4.235294,-2.823529,-35.294118,-0.007843,-0.007843,-0.007843,-1.960784,-1.960784,-1.960784,3
-4.235294,-2.823529,-35.294118,-0.007843,-0.007843,-0.007843,-1.960784,-1.960784,-1.960784,3
-4.235294,-2.823529,-35.294118,-0.007843,-0.007843,-0.007843,-1.960784,-1.960784,-1.960784,3
-4.235294,-2.823529,-35.294118,-0.007843,-0.007843,-0.007843,-1.960784,-1.960784,-1.960784,3
-4.235294,-2.823529,-35.294118,-0.007843,-0.007843,-0.007843,-1.960784,-1.960784,-1.960784,3
-4.235294,-2.823529,-35.294118,-0.007843,-0.007843,-0.007843,-1.960784,-1.960784,-1.960784,3
-4.235294,-2.823529,-35.294118,-0.007843,-0.007843,-0.007843,-1.960784,-1.960784,-1.960784,3
-4.235294,-2.823529,-35.294118,-0.007843,-0.007843,-0.007843,-1.960784,-1.960784,-1.960784,3
-4.235294,-2.823529,-35.294118,-0.007843,-0.007843,-0.007843,-1.960784,-1.960784,-1.960784,3
-4.235294,-2.823529,-35.294118,-0.007843,-0.007843,-0.007843,-1.960784,-1.960784,-1.960784,3
-4.235294,-2.823529,-35.294118,-0.007843,-0.007843,-0.007843,-1.960784,-1.960784,-1.960784,3
-4.235294,-2.823529,-35.294118,-0.007843,-0.007843,-0.007843,-1.960784,-1.960784,-1.960784,3
-4.235294,-2.823529,-35.294118,-0.007843,-0.007843,-0.007843,-1.960784,-1.960784,-1.960784,3
-4.235294,-2.823529,-35.294118,-0.007843,-0.007843,-0.007843,-1.960784,-1.960784,-1.960784,3
-4.235294,-2.823529,-35.294118,-0.007843,-0.007843,-0.007843,-1.960784,-1.960784,-1.960784,3
-4.235294,-2.823529,-35.294118,-0.007843,-0.007843,-0.007843,-1.960784,-1.960784,-1.960784,3
-4.235294,-2.823529,-35.294118,-0.007843,-0.007843,-0.007843,-1.960784,-1.960784,-1.960784,3
-4.235294,-2.823529,-35.294118,-0.007843,-0.007843,-0.007843,-1.960784,-1.960784,-1.960784,3
-4.235294,-2.823529,-35.294118,-0.007843,-0.007843,0.007843,-1.960784,-1.960784,-1.960784,3
-4.235294,-2.823529,-35.294118,-0.007843,-0.007843,-0.007843,-1.960784,-1.960784,-1.960784,3
-4.235294,-2.823529,-35.294118,-0.007843,-0.007843,-0.007843,-1.960784,-1.960784,-1.960784,3
-4.235294,-2.823529,-35.294118,-0.007843,-0.023529,-0.007843,-1.960784,-1.960784,-1.960784,3
-4.235294,-2.823529,-35.294118,-0.007843,-0.007843,-0.007843,-1.960784,-1.960784,-1.960784,3
-4.235294,-2.823529,-35.294118,-0.007843,-0.007843,0.007843,-1.960784,-1.960784,-1.960784,3
-4.235294,-2.823529,-35.294118,-0.007843,-0.007843,-0.007843,-1.960784,-1.960784,-1.960784,3
-4.235294,-2.823529,-35.294118,-0.007843,-0.007843,-0.007843,-1.960784,-1.960784,-1.960784,3
-4.235294,-2.823529,-35.294118,0.007843,-0.007843,-0.007843,-1.960784,-1.960784,-1.960784,3
-4.235294,-2.823529,-35.294118,-0.007843,-0.007843,-0.007843,-1.960784,-1.960784,-1.960784,3
-4.235294,-2.823529,-35.294118,-0.007843,-0.007843,-0.007843,-1.960784,-1.960784,-1.960784,3
-4.235294,-2.823529,-35.294118,-0.007843,-0.007843,-0.007843,-1.960784,-1.960784,-1.960784,3
-4.235294,-2.823529,-35.294118,-0.007843,-0.007843,-0.007843,-1.960784,-1.960784,-1.960784,3
-4.235294,-2.823529,-35.294118,-0.007843,-0.007843,-0.007843,-1.960784,-1.960784,-1.960784,3
-4.235294,-2.823529,-35.294118,-0.007843,-0.007843,-0.007843,-1.960784,-1.960784,-1.960784,3
-4.235294,-2.823529,-35.294118,-0.007843,-0.007843,-0.007843,-1.960784,-1.960784,-1.960784,3
-4.235294,-2.823529,-35.294118,-0.007843,-0.007843,0.007843,-1.960784,-1.960784,-1.960784,3
-4.235294,-2.823529,-35.294118,-0.007843,-0.007843,-0.007843,-1.960784,-1.960784,-1.960784,3
-4.235294,-2.823529,-35.294118,-0.007843,-0.007843,-0.007843,-1.960784,-1.960784,-1.960784,3
-4.235294,-2.823529,-35.294118,-0.007843,-0.007843,-0.007843,-1.960784,-1.960784,-1.960784,3
-4.235294,-2.823529,-35.294118,-0.007843,-0.007843,-0.007843,-1.960784,-1.960784,-1.960784,3
-4.235294,-2.823529,-35.294118,-0.007843,-0.007843,-0.007843,-1.960784,-1.960784,-1.960784,3
-4.235294,-2.823529,-35.294118,-0.007843,-0.007843,-0.007843,-1.960784,-1.960784,-1.960784,3
-4.235294,-2.823529,-35.294118,-0.007843,-0.007843,-0.007843,-1.960784,-1.960784,-1.960784,3
-4.235294,-2.823529,-35.294118,-0.007843,-0.007843,-0.007843,-1.960784,-1.960784,-1.960784,3
-4.235294,-2.823529,-35.294118,-0.007843,-0.007843,-0.007843,-1.960784,-1.960784,-1.960784,3
-4.235294,-2.823529,-35.294118,-0.007843,-0.007843,-0.007843,-1.960784,-1.960784,-1.960784,3
-4.235294,-2.823529,-35.294118,-0.007843,-0.007843,-0.007843,-1.960784,-1.960784,-1.960784,3
-4.235294,-2.823529,-35.294118,-0.007843,-0.007843,-0.007843,-1.960784,-1.960784,-1.960784,3
-4.235294,-2.823529,-35.294118,-0.007843,-0.007843,-0.007843,-1.960784,-1.960784,-1.960784,3
-4.235294,-2.823529,-35.294118,-0.007843,-0.007843,-0.007843,-1.960784,-1.960784,-1.960784,3
-4.235294,-2.823529,-35.294118,-0.007843,-0.007843,-0.007843,-1.960784,-1.960784,-1.960784,3
-4.235294,-2.823529,-35.294118,-0.007843,-0.007843,-0.007843,-1.960784,-1.960784,-1.960784,3
-4.235294,-2.823529,-35.294118,-0.007843,-0.007843,-0.007843,-1.960784,-1.960784,-1.960784,3
-4.235294,-2.823529,-35.294118,-0.007843,-0.007843,-0.007843,-1.960784,-1.960784,-1.960784,3
-4.235294,-2.823529,-35.294118,-0.007843,-0.007843,-0.007843,-1.960784,-1.960784,-1.960784,3
-4.235294,-2.823529,-35.294118,-0.007843,-0.007843,0.007843,-1.960784,-1.960784,-1.960784,3
-4.235294,-2.823529,-35.294118,-0.007843,-0.007843,-0.007843,-1.960784,-1.960784,-1.960784,3
-4.235294,-2.823529,-35.294118,-0.007843,-0.007843,-0.007843,-1.960784,-1.960784,-1.960784,3
-4.235294,-2.823529,-35.294118,-0.007843,-0.007843,-0.007843,-1.960784,-1.960784,-1.960784,3
-4.235294,-2.823529,-35.294118,-0.007843,-0.007843,-0.007843,-1.960784,-1.960784,-1.960784,3
-4.235294,-2.823529,-35.294118,-0.007843,-0.007843,-0.007843,-1.960784,-1.960784,-1.960784,3
-4.235294,-2.823529,-35.294118,-0.007843,-0.007843,-0.007843,-1.960784,-1.960784,-1.960784,3
-4.235294,-2.823529,-35.294118,-0.007843,-0.007843,-0.007843,-1.960784,-1.960784,-1.960784,3
-4.235294,-2.823529,-35.294118,-0.007843,-0.007843,-0.007843,-1.960784,-1.960784,-1.960784,3
-4.235294,-2.823529,-35.294118,-0.007843,-0.007843,-0.007843,-1.960784,-1.960784,-1.960784,3
-4.235294,-2.823529,-35.294118,-0.007843,-0.007843,-0.007843,-1.960784,-1.960784,-1.960784,3
-4.235294,-2.823529,-35.294118,0.007843,-0.007843,-0.007843,-1.960784,-1.960784,-1.960784,3
-4.235294,-2.823529,-35.294118,-0.007843,-0.007843,-0.007843,-1.960784,-1.960784,-1.960784,3
-4.235294,-2.823529,-35.294118,-0.007843,-0.007843,-0.007843,-1.960784,-1.960784,-1.960784,3
-4.235294,-2.823529,-35.294118,-0.007843,-0.007843,-0.007843,-1.960784,-1.960784,-1.960784,3
-4.235294,-2.823529,-35.294118,-0.007843,-0.007843,-0.007843,-1.960784,-1.960784,-1.960784,3
-4.235294,-2.823529,-35.294118,-0.007843,-0.007843,-0.007843,-1.960784,-1.960784,-1.960784,3
-4.235294,-2.823529,-35.294118,-0.007843,-0.007843,-0.007843,-1.960784,-1.960784,-1.960784,3
-4.235294,-2.823529,-35.294118,-0.007843,-0.007843,-0.007843,-1.960784,-1.960784,-1.960784,3
-4.235294,-2.823529,-35.294118,-0.007843,-0.007843,-0.007843,-1.960784,-1.960784,-1.960784,3
-4.235294,-2.823529,-35.294118,-0.007843,-0.007843,-0.007843,-1.960784,-1.960784,-1.960784,3
-4.235294,-2.823529,-35.294118,-0.007843,-0.007843,0.007843,-1.960784,-1.960784,-1.960784,3
-4.235294,-2.823529,-35.294118,-0.007843,-0.007843,-0.007843,-1.960784,-1.960784,-1.960784,3
-4.235294,-2.823529,-35.294118,-0.007843,-0.007843,-0.007843,-1.960784,-1.960784,-1.960784,3
-4.235294,-2.823529,-35.294118,-0.007843,-0.007843,-0.007843,-1.960784,-1.960784,-1.960784,3
-4.235294,-2.823529,-35.294118,-0.007843,-0.007843,-0.007843,-1.960784,-1.960784,-1.960784,3
-4.235294,-2.823529,-35.294118,-0.007843,-0.007843,-0.007843,-1.960784,-1.960784,-1.960784,3
-4.235294,-2.823529,-35.294118,-0.007843,-0.007843,-0.007843,-1.960784,-1.960784,-1.960784,3
-4.235294,-2.823529,-35.294118,-0.007843,-0.007843,-0.007843,-1.960784,-1.960784,-1.960784,3
-4.235294,-2.823529,-33.882353,-0.007843,-0.007843,-0.007843,-1.960784,-1.960784,-1.960784,3
-4.235294,-2.823529,-33.882353,-0.007843,-0.007843,-0.007843,-1.960784,-1.960784,-1.960784,3
-4.235294,-2.823529,-33.882353,-0.007843,-0.007843,-0.007843,-1.960784,-1.960784,-1.960784,3
-4.235294,-2.823529,-33.882353,-0.007843,-0.007843,-0.007843,-1.960784,-1.960784,-1.960784,3
-4.235294,-2.823529,-33.882353,-0.007843,-0.007843,-0.007843,-1.960784,-1.960784,-1.960784,3
-4.235294,-2.823529,-33.882353,-0.007843,-0.007843,-0.007843,-1.960784,-1.960784,-1.960784,3
-4.235294,-2.823529,-33.882353,-0.007843,-0.007843,-0.007843,-1.960784,-1.960784,-1.960784,3
-4.235294,-2.823529,-33.882353,-0.007843,-0.007843,-0.007843,-1.960784,-1.960784,-1.960784,3
-4.235294,-2.823529,-33.882353,-0.007843,-0.007843,-0.007843,-1.960784,-1.960784,-1.960784,3
-4.235294,-2.823529,-33.882353,-0.007843,-0.023529,-0.007843,-1.960784,-1.960784,-1.960784,3
-4.235294,-2.823529,-33.882353,-0.007843,-0.007843,-0.007843,-1.960784,-1.960784,-1.960784,3
-4.235294,-2.823529,-33.882353,-0.007843,-0.007843,-0.007843,-1.960784,-1.960784,-1.960784,3
-4.235294,-2.823529,-33.882353,-0.007843,-0.007843,-0.007843,-1.960784,-1.960784,-1.960784,3
-4.235294,-2.823529,-33.882353,-0.007843,-0.007843,-0.007843,-1.960784,-1.960784,-1.960784,3
-4.235294,-2.823529,-33.882353,-0.007843,-0.007843,-0.007843,-1.960784,-1.960784,-1.960784,3
-4.235294,-2.823529,-33.882353,-0.007843,-0.007843,-0.007843,-1.960784,-1.960784,-1.960784,3
-4.235294,-2.823529,-33.882353,-0.007843,-0.007843,-0.007843,-1.960784,-1.960784,-1.960784,3
-4.235294,-2.823529,-33.882353,-0.007843,-0.007843,-0.007843,-1.960784,-1.960784,-1.960784,3
-4.235294,-2.823529,-33.882353,-0.007843,-0.007843,-0.007843,-1.960784,-1.960784,-1.960784,3
-4.235294,-2.823529,-33.882353,-0.007843,-0.007843,-0.007843,-1.960784,-1.960784,-1.960784,3
-4.235294,-2.823529,-33.882353,-0.007843,-0.007843,-0.007843,-1.960784,-1.960784,-1.960784,3
-4.235294,-2.823529,-33.882353,-0.007843,-0.007843,-0.007843,-1.960784,-1.960784,-1.960784,3
-4.235294,-2.823529,-33.882353,-0.007843,-0.007843,-0.007843,-1.960784,-1.960784,-1.960784,3
-4.235294,-2.823529,-33.882353,-0.007843,-0.007843,-0.007843,-1.960784,-1.960784,-1.960784,3
-4.235294,-2.823529,-33.882353,-0.007843,-0.007843,-0.007843,-1.960784,-1.960784,-1.960784,3
-4.235294,-2.823529,-33.882353,-0.007843,-0.007843,-0.007843,-1.960784,-1.960784,-1.960784,3
-4.235294,-2.823529,-33.882353,-0.007843,-0.023529,-0.007843,-1.960784,-1.960784,-1.960784,3
-4.235294,-2.823529,-33.882353,-0.007843,-0.007843,-0.007843,-1.960784,-1.960784,-1.960784,3
-4.235294,-2.823529,-33.882353,-0.007843,-0.007843,-0.007843,-1.960784,-1.960784,-1.960784,3
-4.235294,-2.823529,-33.882353,-0.007843,-0.007843,-0.007843,-1.960784,-1.960784,-1.960784,3
-4.235294,-2.823529,-33.882353,-0.007843,-0.007843,-0.007843,-1.960784,-1.960784,-1.960784,3
-4.235294,-2.823529,-33.882353,-0.007843,-0.007843,-0.007843,-1.960784,-1.960784,-1.960784,3
-4.235294,-2.823529,-33.882353,-0.007843,-0.007843,-0.007843,-1.960784,-1.960784,-1.960784,3
-4.235294,-2.823529,-33.882353,-0.007843,-0.007843,-0.007843,-1.960784,-1.960784,-1.960784,3
-4.235294,-2.823529,-33.882353,-0.007843,-0.007843,-0.007843,-1.960784,-1.960784,-1.960784,3
-4.235294,-2.823529,-33.882353,-0.007843,-0.007843,-0.007843,-1.960784,-1.960784,-1.960784,3
-4.235294,-2.823529,-33.882353,-0.007843,-0.007843,-0.007843,-1.960784,-1.960784,-1.960784,3
-4.235294,-2.823529,-33.882353,-0.007843,-0.007843,0.007843,-1.960784,-1.960784,-1.960784,3
-4.235294,-2.823529,-33.882353,-0.007843,-0.007843,-0.007843,-1.960784,-1.960784,-1.960784,3
-4.235294,-2.823529,-33.882353,-0.007843,-0.007843,-0.007843,-1.960784,-1.960784,-1.960784,3
-4.235294,-2.823529,-33.882353,-0.007843,-0.007843,-0.007843,-1.960784,-1.960784,-1.960784,3
-4.235294,-2.823529,-33.882353,-0.007843,-0.007843,-0.007843,-1.960784,-1.960784,-1.960784,3
-4.235294,-2.823529,-33.882353,-0.007843,-0.007843,-0.007843,-1.960784,-1.960784,-1.960784,3
-4.235294,-2.823529,-33.882353,-0.007843,-0.007843,-0.007843,-1.960784,-1.960784,-1.960784,3
-4.235294,-2.823529,-33.882353,-0.007843,-0.007843,0.007843,-1.960784,-1.960784,-1.960784,3
-4.235294,-2.823529,-33.882353,-0.007843,-0.007843,-0.007843,-1.960784,-1.960784,-1.960784,3
-4.235294,-2.823529,-33.882353,-0.007843,-0.007843,-0.007843,-1.960784,-1.960784,-1.960784,3
-4.235294,-2.823529,-33.882353,-0.007843,-0.007843,-0.007843,-1.960784,-1.960784,-1.960784,3
-4.235294,-2.823529,-33.882353,-0.007843,-0.007843,-0.007843,-1.960784,-1.960784,-1.960784,3
-4.235294,-2.823529,-33.882353,-0.007843,-0.007843,-0.007843,-1.960784,-1.960784,-1.960784,3
-4.235294,-2.823529,-33.882353,-0.007843,-0.007843,-0.007843,-1.960784,-1.960784,-1.960784,3
-4.235294,-2.823529,-33.882353,-0.007843,-0.023529,-0.007843,-1.960784,-1.960784,-1.960784,3
-4.235294,-2.823529,-33.882353,-0.007843,-0.007843,0.007843,-1.960784,-1.960784,-1.960784,3
-4.235294,-2.823529,-33.882353,-0.007843,-0.007843,-0.007843,-1.960784,-1.960784,-1.960784,3
-4.235294,-2.823529,-33.882353,-0.007843,-0.007843,-0.007843,-1.960784,-1.960784,-1.960784,3
-4.235294,-2.823529,-33.882353,-0.007843,-0.007843,-0.007843,-1.960784,-1.960784,-1.960784,3
-4.235294,-2.823529,-33.882353,-0.007843,-0.007843,-0.007843,-1.960784,-1.960784,-1.960784,3
-4.235294,-2.823529,-33.882353,-0.007843,-0.007843,-0.007843,-1.960784,-1.960784,-1.960784,3
-4.235294,-2.823529,-33.882353,-0.007843,-0.007843,-0.007843,-1.960784,-1.960784,-1.960784,3
-4.235294,-2.823529,-33.882353,-0.007843,-0.007843,-0.007843,-1.960784,-1.960784,-1.960784,3
-4.235294,-2.823529,-33.882353,-0.007843,-0.007843,-0.007843,-1.960784,-1.960784,-1.960784,3
-4.235294,-2.823529,-33.882353,-0.007843,-0.007843,-0.007843,-1.960784,-1.960784,-1.960784,3
-4.235294,-2.823529,-33.882353,-0.007843,-0.007843,-0.007843,-1.960784,-1.960784,-1.960784,3
-4.235294,-2.823529,-33.882353,-0.007843,-0.007843,-0.007843,-1.960784,-1.960784,-1.960784,3
-4.235294,-2.823529,-33.882353,-0.007843,-0.007843,0.007843,-1.960784,-1.960784,-1.960784,3
-4.235294,-2.823529,-33.882353,0.007843,-0.007843,-0.007843,-1.960784,-1.960784,-1.960784,3
-4.235294,-2.823529,-33.882353,-0.007843,-0.007843,-0.007843,-1.960784,-1.960784,-1.960784,3
-4.235294,-2.823529,-33.882353,0.007843,-0.007843,-0.007843,-1.960784,-1.960784,-1.960784,3
-4.235294,-2.823529,-33.882353,0.007843,-0.007843,-0.007843,-1.960784,-1.960784,-1.960784,3
-4.235294,-2.823529,-33.882353,-0.007843,-0.007843,-0.007843,-1.960784,-1.960784,-1.960784,3
-4.235294,-2.823529,-33.882353,-0.007843,-0.007843,-0.007843,-1.960784,-1.960784,-1.960784,3
-4.235294,-2.823529,-33.882353,-0.007843,-0.023529,-0.007843,-1.960784,-1.960784,-1.960784,3
-4.235294,-2.823529,-33.882353,-0.007843,-0.007843,-0.007843,-1.960784,-1.960784,-1.960784,3
-4.235294,-2.823529,-33.882353,-0.007843,-0.007843,-0.007843,-1.960784,-1.960784,-1.960784,3
-4.235294,-2.823529,-33.882353,-0.007843,-0.007843,-0.007843,-1.960784,-1.960784,-1.960784,3
-4.235294,-2.823529,-33.882353,-0.007843,-0.007843,-0.007843,-1.960784,-1.960784,-1.960784,3
-4.235294,-2.823529,-33.882353,0.007843,-0.007843,-0.007843,-1.960784,-1.960784,-1.960784,3
-4.235294,-2.823529,-33.882353,-0.007843,-0.007843,-0.007843,-1.960784,-1.960784,-1.960784,3
-4.235294,-2.823529,-33.882353,-0.007843,-0.007843,-0.007843,-1.960784,-1.960784,-1.960784,3
-4.235294,-2.823529,-33.882353,-0.007843,-0.023529,-0.007843,-1.960784,-1.960784,-1.960784,3
-4.235294,-2.823529,-33.882353,-0.007843,-0.007843,-0.007843,-1.960784,-1.960784,-1.960784,3
-4.235294,-2.823529,-33.882353,-0.007843,-0.007843,-0.007843,-1.960784,-1.960784,-1.960784,3
-4.235294,-2.823529,-33.882353,-0.007843,-0.007843,-0.007843,-1.960784,-1.960784,-1.960784,3
-4.235294,-2.823529,-33.882353,-0.007843,-0.007843,-0.007843,-1.960784,-1.960784,-1.960784,3
-4.235294,-2.823529,-33.882353,-0.007843,-0.007843,-0.007843,-1.960784,-1.960784,-1.960784,3
-4.235294,-2.823529,-33.882353,-0.007843,-0.007843,-0.007843,-1.960784,-1.960784,-1.960784,3
-4.235294,-2.823529,-33.882353,-0.007843,-0.007843,-0.007843,-1.960784,-1.960784,-1.960784,3
-4.235294,-2.823529,-33.882353,-0.007843,-0.007843,-0.007843,-1.960784,-1.960784,-1.960784,3
-4.235294,-2.823529,-33.882353,-0.007843,-0.007843,-0.007843,-1.960784,-1.960784,-1.960784,3
-4.235294,-2.823529,-33.882353,-0.007843,-0.007843,-0.007843,-1.960784,-1.960784,-1.960784,3
-4.235294,-2.823529,-33.882353,-0.007843,-0.007843,-0.007843,-1.960784,-1.960784,-1.960784,3
-4.235294,-2.823529,-33.882353,-0.007843,-0.007843,-0.007843,-1.960784,-1.960784,-1.960784,3
-4.235294,-2.823529,-33.882353,-0.007843,-0.007843,-0.007843,-1.960784,-1.960784,-1.960784,3
-4.235294,-2.823529,-33.882353,-0.007843,-0.007843,-0.007843,-1.960784,-1.960784,-1.960784,3
-4.235294,-2.823529,-33.882353,-0.007843,-0.007843,-0.007843,-1.960784,-1.960784,-1.960784,3
-4.235294,-2.823529,-33.882353,-0.007843,-0.007843,-0.007843,-1.960784,-1.960784,-1.960784,3
-4.235294,-2.823529,-33.882353,-0.007843,-0.007843,-0.007843,-1.960784,-1.960784,-1.960784,3
-4.235294,-2.823529,-33.882353,-0.007843,-0.007843,-0.007843,-1.960784,-1.960784,-1.960784,3
-4.235294,-2.823529,-33.882353,-0.007843,-0.007843,-0.007843,-1.960784,-1.960784,-1.960784,3
-4.235294,-2.823529,-33.882353,-0.007843,-0.007843,-0.007843,-1.960784,-1.960784,-1.960784,3
-4.235294,-2.823529,-33.882353,-0.007843,-0.007843,-0.007843,-1.960784,-1.960784,-1.960784,3
-4.235294,-2.823529,-33.882353,-0.007843,-0.007843,-0.007843,-1.960784,-1.960784,-1.960784,3
-4.235294,-2.823529,-33.882353,-0.007843,-0.007843,-0.007843,-1.960784,-1.960784,-1.960784,3
-4.235294,-2.823529,-33.882353,-0.007843,-0.007843,-0.007843,-1.960784,-1.960784,-1.960784,3
-4.235294,-2.823529,-33.882353,-0.007843,-0.007843,-0.007843,-1.960784,-1.960784,-1.960784,3
-4.235294,-2.823529,-33.882353,-0.007843,-0.007843,-0.007843,-1.960784,-1.960784,-1.960784,3
-4.235294,-2.823529,-33.882353,-0.007843,-0.007843,-0.007843,-1.960784,-1.960784,-1.960784,3
-4.235294,-2.823529,-33.882353,-0.007843,-0.007843,-0.007843,-1.960784,-1.960784,-1.960784,3
-4.235294,-2.823529,-33.882353,-0.007843,-0.023529,-0.007843,-1.960784,-1.960784,-1.960784,3
-4.235294,-2.823529,-33.882353,-0.007843,-0.007843,-0.007843,-1.960784,-1.960784,-1.960784,3
-4.235294,-2.823529,-33.882353,-0.007843,-0.007843,-0.007843,-1.960784,-1.960784,-1.960784,3
-4.235294,-2.823529,-33.882353,-0.007843,-0.007843,-0.007843,-1.960784,-1.960784,-1.960784,3
-4.235294,-2.823529,-33.882353,-0.007843,-0.007843,-0.007843,-1.960784,-1.960784,-1.960784,3
-4.235294,-2.823529,-33.882353,-0.007843,-0.007843,-0.007843,-1.960784,-1.960784,-1.960784,3
-4.235294,-2.823529,-33.882353,-0.007843,-0.007843,-0.007843,-1.960784,-1.960784,-1.960784,3
-4.235294,-2.823529,-33.882353,-0.007843,-0.007843,-0.007843,-1.960784,-1.960784,-1.960784,3
-4.235294,-2.823529,-33.882353,-0.007843,-0.007843,-0.007843,-1.960784,-1.960784,-1.960784,3
-4.235294,-2.823529,-33.882353,-0.007843,-0.007843,-0.007843,-1.960784,-1.960784,-1.960784,3
-4.235294,-2.823529,-33.882353,-0.007843,-0.007843,-0.007843,-1.960784,-1.960784,-1.960784,3
-4.235294,-2.823529,-33.882353,-0.007843,-0.023529,-0.007843,-1.960784,-1.960784,-1.960784,3
-4.235294,-2.823529,-33.882353,-0.007843,-0.023529,-0.007843,-1.960784,-1.960784,-1.960784,3
-4.235294,-2.823529,-33.882353,-0.007843,-0.007843,-0.007843,-1.960784,-1.960784,-1.960784,3
-4.235294,-2.823529,-32.470588,-0.007843,-0.007843,-0.007843,-1.960784,-1.960784,-1.960784,3
-4.235294,-2.823529,-32.470588,-0.007843,-0.007843,-0.007843,-1.960784,-1.960784,-1.960784,3
-4.235294,-2.823529,-32.470588,-0.007843,-0.007843,-0.007843,-1.960784,-1.960784,-1.960784,3
-4.235294,-2.823529,-32.470588,-0.007843,-0.007843,-0.007843,-1.960784,-1.960784,-1.960784,3
-4.235294,-2.823529,-32.470588,-0.007843,-0.007843,-0.007843,-1.960784,-1.960784,-1.960784,3
-4.235294,-2.823529,-32.470588,-0.007843,-0.007843,-0.007843,-1.960784,-1.960784,-1.960784,3
-4.235294,-2.823529,-32.470588,0.007843,-0.023529,-0.007843,-1.960784,-1.960784,-1.960784,3
-4.235294,-2.823529,-32.470588,-0.007843,-0.007843,-0.007843,-1.960784,-1.960784,-1.960784,3
-4.235294,-2.823529,-32.470588,-0.007843,-0.007843,-0.007843,-1.960784,-1.960784,-1.960784,3
-4.235294,-2.823529,-32.470588,-0.007843,-0.007843,-0.007843,-1.960784,-1.960784,-1.960784,3
-4.235294,-2.823529,-32.470588,-0.007843,-0.007843,-0.007843,-1.960784,-1.960784,-1.960784,3
-4.235294,-2.823529,-32.470588,-0.007843,-0.007843,-0.007843,-1.960784,-1.960784,-1.960784,3
-4.235294,-2.823529,-32.470588,-0.007843,-0.007843,-0.007843,-1.960784,-1.960784,-1.960784,3
-4.235294,-2.823529,-32.470588,-0.007843,-0.007843,-0.007843,-1.960784,-1.960784,-1.960784,3
-4.235294,-2.823529,-32.470588,-0.007843,-0.007843,-0.007843,-1.960784,-1.960784,-1.960784,3
-4.235294,-2.823529,-32.470588,-0.007843,-0.023529,-0.007843,-1.960784,-1.960784,-1.960784,3
-4.235294,-2.823529,-32.470588,-0.007843,-0.007843,-0.007843,-1.960784,-1.960784,-1.960784,3
-4.235294,-2.823529,-32.470588,-0.007843,-0.007843,-0.007843,-1.960784,-1.960784,-1.960784,3
-4.235294,-2.823529,-32.470588,-0.007843,-0.007843,-0.007843,-1.960784,-1.960784,-1.960784,3
-4.235294,-2.823529,-32.470588,-0.007843,-0.007843,-0.007843,-1.960784,-1.960784,-1.960784,3
-4.235294,-2.823529,-32.470588,-0.007843,-0.007843,-0.007843,-1.960784,-1.960784,-1.960784,3
-4.235294,-2.823529,-32.470588,-0.007843,-0.007843,-0.007843,-1.960784,-1.960784,-1.960784,3
-4.235294,-2.823529,-32.470588,-0.007843,-0.007843,-0.007843,-1.960784,-1.960784,-1.960784,3
-4.235294,-2.823529,-32.470588,-0.007843,-0.007843,-0.007843,-1.960784,-1.960784,-1.960784,3
-4.235294,-2.823529,-32.470588,-0.007843,-0.007843,-0.007843,-1.960784,-1.960784,-1.960784,3
-4.235294,-2.823529,-32.470588,-0.007843,-0.007843,-0.007843,-1.960784,-1.960784,-1.960784,3
-4.235294,-2.823529,-32.470588,-0.007843,-0.007843,-0.007843,-1.960784,-1.960784,-1.960784,3
-4.235294,-2.823529,-32.470588,-0.007843,-0.007843,-0.007843,-1.960784,-1.960784,-1.960784,3
-4.235294,-2.823529,-32.470588,-0.007843,-0.007843,-0.007843,-1.960784,-1.960784,-1.960784,3
-4.235294,-2.823529,-32.470588,-0.007843,-0.007843,-0.007843,-1.960784,-1.960784,-1.960784,3
-4.235294,-2.823529,-32.470588,-0.007843,-0.007843,-0.007843,-1.960784,-1.960784,-1.960784,3
-4.235294,-2.823529,-32.470588,-0.007843,-0.007843,-0.007843,-1.960784,-1.960784,-1.960784,3
-4.235294,-2.823529,-32.470588,-0.007843,-0.007843,-0.007843,-1.960784,-1.960784,-1.960784,3
-4.235294,-2.823529,-32.470588,-0.007843,-0.007843,-0.007843,-1.960784,-1.960784,-1.960784,3
-4.235294,-2.823529,-32.470588,-0.007843,-0.007843,-0.007843,-1.960784,-1.960784,-1.960784,3
-4.235294,-2.823529,-32.470588,-0.007843,-0.007843,-0.007843,-1.960784,-1.960784,-1.960784,3
-4.235294,-2.823529,-32.470588,-0.007843,-0.007843,-0.007843,-1.960784,-1.960784,-1.960784,3
-4.235294,-2.823529,-32.470588,0.007843,-0.007843,-0.007843,-1.960784,-1.960784,-1.960784,3
-4.235294,-2.823529,-32.470588,-0.007843,-0.007843,-0.007843,-1.960784,-1.960784,-1.960784,3
-4.235294,-2.823529,-32.470588,-0.007843,-0.007843,-0.007843,-1.960784,-1.960784,-1.960784,3
-4.235294,-2.823529,-32.470588,-0.007843,-0.007843,-0.007843,-1.960784,-1.960784,-1.960784,3
-4.235294,-2.823529,-32.470588,-0.007843,-0.007843,-0.007843,-1.960784,-1.960784,-1.960784,3
-4.235294,-2.823529,-32.470588,-0.007843,-0.007843,-0.007843,-1.960784,-1.960784,-1.960784,3
-4.235294,-2.823529,-32.470588,-0.007843,-0.007843,-0.023529,-1.960784,-1.960784,-1.960784,3
-4.235294,-2.823529,-32.470588,-0.007843,-0.007843,-0.007843,-1.960784,-1.960784,-1.960784,3
-4.235294,-2.823529,-32.470588,-0.007843,-0.007843,-0.007843,-1.960784,-1.960784,-1.960784,3
-4.235294,-2.823529,-32.470588,-0.007843,-0.007843,-0.007843,-1.960784,-1.960784,-1.960784,3
-4.235294,-2.823529,-32.470588,-0.007843,-0.007843,-0.007843,-1.960784,-1.960784,-1.960784,3
-4.235294,-2.823529,-32.470588,-0.007843,-0.007843,-0.007843,-1.960784,-1.960784,-1.960784,3
-4.235294,-2.823529,-32.470588,-0.007843,-0.007843,-0.007843,-1.960784,-1.960784,-1.960784,3
-4.235294,-2.823529,-32.470588,-0.007843,-0.007843,-0.007843,-1.960784,-1.960784,-1.960784,3
-4.235294,-2.823529,-32.470588,-0.007843,-0.007843,-0.007843,-1.960784,-1.960784,-1.960784,3
-4.235294,-2.823529,-32.470588,-0.007843,-0.007843,-0.007843,-1.960784,-1.960784,-1.960784,3
-4.235294,-2.823529,-32.470588,-0.007843,-0.007843,-0.007843,-1.960784,-1.960784,-1.960784,3
-4.235294,-2.823529,-32.470588,-0.007843,-0.007843,-0.007843,-1.960784,-1.960784,-1.960784,3
-4.235294,-2.823529,-32.470588,-0.007843,-0.007843,-0.007843,-1.960784,-1.960784,-1.960784,3
-4.235294,-2.823529,-32.470588,-0.007843,-0.007843,-0.007843,-1.960784,-1.960784,-1.960784,3
-4.235294,-2.823529,-32.470588,-0.007843,-0.007843,-0.007843,-1.960784,-1.960784,-1.960784,3
-4.235294,-2.823529,-32.470588,-0.007843,-0.007843,-0.007843,-1.960784,-1.960784,-1.960784,3
-4.235294,-2.823529,-32.470588,-0.007843,-0.007843,-0.007843,-1.960784,-1.960784,-1.960784,3
-4.235294,-2.823529,-32.470588,-0.007843,-0.007843,-0.007843,-1.960784,-1.960784,-1.960784,3
-4.235294,-2.823529,-32.470588,-0.007843,-0.007843,-0.007843,-1.960784,-1.960784,-1.960784,3
-4.235294,-2.823529,-32.470588,-0.007843,-0.007843,-0.007843,-1.960784,-1.960784,-1.960784,3
-4.235294,-2.823529,-32.470588,-0.007843,-0.007843,-0.007843,-1.960784,-1.960784,-1.960784,3
-4.235294,-2.823529,-32.470588,-0.007843,-0.007843,-0.007843,-1.960784,-1.960784,-1.960784,3
-4.235294,-2.823529,-32.470588,-0.007843,-0.007843,-0.007843,-1.960784,-1.960784,-1.960784,3
-4.235294,-2.823529,-32.470588,-0.007843,-0.007843,-0.007843,-1.960784,-1.960784,-1.960784,3
-4.235294,-2.823529,-32.470588,0.007843,-0.007843,-0.007843,-1.960784,-1.960784,-1.960784,3
-4.235294,-2.823529,-32.470588,-0.007843,-0.007843,-0.007843,-1.960784,-1.960784,-1.960784,3
-4.235294,-2.823529,-32.470588,-0.007843,-0.023529,-0.007843,-1.960784,-1.960784,-1.960784,3
-4.235294,-2.823529,-32.470588,-0.007843,-0.007843,-0.007843,-1.960784,-1.960784,-1.960784,3
-4.235294,-2.823529,-32.470588,-0.007843,-0.007843,-0.007843,-1.960784,-1.960784,-1.960784,3
-4.235294,-2.823529,-32.470588,-0.007843,-0.007843,-0.007843,-1.960784,-1.960784,-1.960784,3
-4.235294,-2.823529,-32.470588,-0.007843,-0.007843,-0.007843,-1.960784,-1.960784,-1.960784,3
-4.235294,-2.823529,-32.470588,-0.007843,-0.007843,-0.007843,-1.960784,-1.960784,-1.960784,3
-4.235294,-2.823529,-32.470588,-0.007843,-0.007843,-0.007843,-1.960784,-1.960784,-1.960784,3
-4.235294,-2.823529,-32.470588,-0.007843,-0.007843,-0.007843,-1.960784,-1.960784,-1.960784,3
-4.235294,-2.823529,-32.470588,-0.007843,-0.023529,-0.007843,-1.960784,-1.960784,-1.960784,3
-4.235294,-2.823529,-32.470588,-0.007843,-0.023529,-0.007843,-1.960784,-1.960784,-1.960784,3
-4.235294,-2.823529,-32.470588,-0.007843,-0.007843,-0.007843,-1.960784,-1.960784,-1.960784,3
-4.235294,-2.823529,-32.470588,-0.007843,-0.007843,-0.007843,-1.960784,-1.960784,-1.960784,3
-4.235294,-2.823529,-32.470588,-0.007843,-0.007843,-0.007843,-1.960784,-1.960784,-1.960784,3
-4.235294,-2.823529,-32.470588,-0.007843,-0.023529,-0.007843,-1.960784,-1.960784,-1.960784,3
-4.235294,-2.823529,-32.470588,-0.007843,-0.007843,-0.007843,-1.960784,-1.960784,-1.960784,3
-4.235294,-2.823529,-32.470588,-0.007843,-0.007843,-0.007843,-1.960784,-1.960784,-1.960784,3
-4.235294,-2.823529,-32.470588,-0.007843,-0.007843,-0.007843,-1.960784,-1.960784,-1.960784,3
-4.235294,-2.823529,-32.470588,-0.007843,-0.007843,-0.007843,-1.960784,-1.960784,-1.960784,3
-4.235294,-2.823529,-32.470588,-0.007843,-0.007843,-0.007843,-1.960784,-1.960784,-1.960784,3
-4.235294,-2.823529,-32.470588,-0.007843,-0.007843,-0.007843,-1.960784,-1.960784,-1.960784,3
-4.235294,-2.823529,-32.470588,-0.007843,-0.007843,-0.007843,-1.960784,-1.960784,-1.960784,3
-4.235294,-2.823529,-32.470588,-0.007843,-0.007843,-0.007843,-1.960784,-1.960784,-1.960784,3
-4.235294,-2.823529,-32.470588,-0.007843,-0.007843,-0.007843,-1.960784,-1.960784,-1.960784,3
-4.235294,-2.823529,-32.470588,-0.007843,-0.007843,-0.007843,-1.960784,-1.960784,-1.960784,3
-4.235294,-2.823529,-32.470588,-0.007843,-0.007843,-0.007843,-1.960784,-1.960784,-1.960784,3
-4.235294,-2.823529,-32.470588,-0.007843,-0.007843,-0.007843,-1.960784,-1.960784,-1.960784,3
-4.235294,-2.823529,-32.470588,-0.007843,-0.007843,-0.007843,-1.960784,-1.960784,-1.960784,3
-4.235294,-2.823529,-32.470588,-0.007843,-0.007843,-0.007843,-1.960784,-1.960784,-1.960784,3
-4.235294,-2.823529,-32.470588,-0.007843,-0.007843,-0.007843,-1.960784,-1.960784,-1.960784,3
-4.235294,-2.823529,-32.470588,-0.007843,-0.007843,-0.007843,-1.960784,-1.960784,-1.960784,3
-4.235294,-2.823529,-32.470588,-0.007843,-0.007843,-0.007843,-1.960784,-1.960784,-1.960784,3
-4.235294,-2.823529,-32.470588,0.007843,-0.007843,-0.007843,-1.960784,-1.960784,-1.960784,3
-4.235294,-2.823529,-32.470588,-0.007843,-0.007843,-0.007843,-1.960784,-1.960784,-1.960784,3
-4.235294,-2.823529,-32.470588,-0.007843,-0.007843,-0.007843,-1.960784,-1.960784,-1.960784,3
-4.235294,-2.823529,-32.470588,-0.007843,-0.007843,-0.007843,-1.960784,-1.960784,-1.960784,3
-4.235294,-2.823529,-32.470588,-0.007843,-0.007843,-0.007843,-1.960784,-1.960784,-1.960784,3
-4.235294,-2.823529,-32.470588,0.007843,-0.007843,-0.007843,-1.960784,-1.960784,-1.960784,3
-4.235294,-2.823529,-32.470588,-0.007843,-0.007843,-0.007843,-1.960784,-1.960784,-1.960784,3
-4.235294,-2.823529,-32.470588,-0.007843,-0.007843,-0.007843,-1.960784,-1.960784,-1.960784,3
-4.235294,-2.823529,-32.470588,-0.007843,-0.007843,-0.007843,-1.960784,-1.960784,-1.960784,3
-4.235294,-2.823529,-32.470588,-0.007843,-0.007843,-0.007843,-1.960784,-1.960784,-1.960784,3
-4.235294,-2.823529,-32.470588,-0.007843,-0.007843,-0.007843,-1.960784,-1.960784,-1.960784,3
-4.235294,-2.823529,-32.470588,-0.007843,-0.007843,-0.007843,-1.960784,-1.960784,-1.960784,3
-4.235294,-2.823529,-32.470588,-0.007843,-0.007843,-0.007843,-1.960784,-1.960784,-1.960784,3
-4.235294,-2.823529,-32.470588,-0.007843,-0.007843,-0.007843,-1.960784,-1.960784,-1.960784,3
-4.235294,-2.823529,-32.470588,-0.007843,-0.007843,-0.007843,-1.960784,-1.960784,-1.960784,3
-4.235294,-2.823529,-32.470588,-0.007843,-0.007843,-0.007843,-1.960784,-1.960784,-1.960784,3
-4.235294,-2.823529,-32.470588,-0.007843,-0.007843,-0.007843,-1.960784,-1.960784,-1.960784,3
-4.235294,-2.823529,-32.470588,-0.007843,-0.007843,-0.007843,-1.960784,-1.960784,-1.960784,3
-4.235294,-2.823529,-32.470588,-0.007843,-0.007843,-0.007843,-1.960784,-1.960784,-1.960784,3
-4.235294,-2.823529,-32.470588,-0.007843,-0.007843,-0.007843,-1.960784,-1.960784,-1.960784,3
-4.235294,-2.823529,-32.470588,-0.007843,-0.007843,-0.007843,-1.960784,-1.960784,-1.960784,3
-4.235294,-2.823529,-32.470588,-0.007843,-0.007843,-0.007843,-1.960784,-1.960784,-1.960784,3
-4.235294,-2.823529,-32.470588,-0.007843,-0.007843,-0.007843,-1.960784,-1.960784,-1.960784,3
-4.235294,-2.823529,-32.470588,-0.007843,-0.007843,-0.007843,-1.960784,-1.960784,-1.960784,3
-4.235294,-2.823529,-32.470588,-0.007843,-0.007843,-0.007843,-1.960784,-1.960784,-1.960784,3
-4.235294,-2.823529,-32.470588,-0.007843,-0.023529,-0.007843,-1.960784,-1.960784,-1.960784,3
-4.235294,-2.823529,-32.470588,-0.007843,-0.007843,-0.007843,-1.960784,-1.960784,-1.960784,3
-4.235294,-2.823529,-32.470588,-0.007843,-0.007843,-0.007843,-1.960784,-1.960784,-1.960784,3
-4.235294,-2.823529,-32.470588,-0.007843,-0.007843,-0.007843,-1.960784,-1.960784,-1.960784,3
-4.235294,-2.823529,-31.058824,-0.007843,-0.007843,-0.007843,-1.960784,-1.960784,-1.960784,3
-4.235294,-2.823529,-31.058824,-0.007843,-0.007843,-0.007843,-1.960784,-1.960784,-1.960784,3
-4.235294,-2.823529,-31.058824,-0.007843,-0.007843,-0.007843,-1.960784,-1.960784,-1.960784,3
-4.235294,-2.823529,-31.058824,-0.007843,-0.007843,-0.007843,-1.960784,-1.960784,-1.960784,3
-4.235294,-2.823529,-31.058824,-0.007843,-0.023529,-0.007843,-1.960784,-1.960784,-1.960784,3
-4.235294,-2.823529,-31.058824,-0.007843,-0.007843,-0.007843,-1.960784,-1.960784,-1.960784,3
-4.235294,-2.823529,-31.058824,-0.007843,-0.007843,-0.007843,-1.960784,-1.960784,-1.960784,3
-4.235294,-2.823529,-31.058824,-0.007843,-0.007843,-0.007843,-1.960784,-1.960784,-1.960784,3
-4.235294,-2.823529,-31.058824,-0.007843,-0.007843,-0.007843,-1.960784,-1.960784,-1.960784,3
-4.235294,-2.823529,-31.058824,-0.007843,-0.007843,-0.007843,-1.960784,-1.960784,-1.960784,3
-4.235294,-2.823529,-31.058824,-0.007843,-0.007843,-0.007843,-1.960784,-1.960784,-1.960784,3
-4.235294,-2.823529,-31.058824,-0.007843,-0.007843,-0.007843,-1.960784,-1.960784,-1.960784,3
-4.235294,-2.823529,-31.058824,-0.007843,-0.007843,-0.007843,-1.960784,-1.960784,-1.960784,3
-4.235294,-2.823529,-31.058824,-0.007843,-0.007843,-0.007843,-1.960784,-1.960784,-1.960784,3
-4.235294,-2.823529,-31.058824,-0.007843,-0.007843,-0.007843,-1.960784,-1.960784,-1.960784,3
-4.235294,-2.823529,-31.058824,-0.007843,-0.007843,-0.007843,-1.960784,-1.960784,-1.960784,3
-4.235294,-2.823529,-31.058824,-0.007843,-0.007843,-0.007843,-1.960784,-1.960784,-1.960784,3
-4.235294,-2.823529,-31.058824,-0.007843,-0.007843,-0.007843,-1.960784,-1.960784,-1.960784,3
-4.235294,-2.823529,-31.058824,-0.007843,-0.007843,-0.007843,-1.960784,-1.960784,-1.960784,3
-4.235294,-2.823529,-31.058824,-0.007843,-0.007843,-0.007843,-1.960784,-1.960784,-1.960784,3
-4.235294,-2.823529,-31.058824,-0.007843,-0.007843,-0.007843,-1.960784,-1.960784,-1.960784,3
-4.235294,-2.823529,-31.058824,-0.007843,-0.007843,-0.007843,-1.960784,-1.960784,-1.960784,3
-4.235294,-2.823529,-31.058824,-0.007843,-0.007843,-0.007843,-1.960784,-1.960784,-1.960784,3
-4.235294,-2.823529,-31.058824,-0.007843,-0.007843,-0.007843,-1.960784,-1.960784,-1.960784,3
-4.235294,-2.823529,-31.058824,-0.007843,-0.007843,-0.007843,-1.960784,-1.960784,-1.960784,3
-4.235294,-2.823529,-31.058824,-0.007843,-0.007843,-0.007843,-1.960784,-1.960784,-1.960784,3
-4.235294,-2.823529,-31.058824,-0.007843,-0.007843,-0.007843,-1.960784,-1.960784,-1.960784,3
-4.235294,-2.823529,-31.058824,-0.007843,-0.007843,-0.007843,-1.960784,-1.960784,-1.960784,3
-4.235294,-2.823529,-31.058824,-0.007843,-0.007843,-0.007843,-1.960784,-1.960784,-1.960784,3
-4.235294,-2.823529,-31.058824,-0.007843,-0.007843,-0.007843,-1.960784,-1.960784,-1.960784,3
-4.235294,-2.823529,-31.058824,-0.007843,-0.007843,-0.007843,-1.960784,-1.960784,-1.960784,3
-4.235294,-2.823529,-31.058824,-0.007843,-0.007843,-0.007843,-1.960784,-1.960784,-1.960784,3
-4.235294,-2.823529,-31.058824,-0.007843,-0.007843,-0.007843,-1.960784,-1.960784,-1.960784,3
-4.235294,-2.823529,-31.058824,-0.007843,-0.007843,-0.007843,-1.960784,-1.960784,-1.960784,3
-4.235294,-2.823529,-31.058824,-0.007843,-0.007843,-0.007843,-1.960784,-1.960784,-1.960784,3
-4.235294,-2.823529,-31.058824,-0.007843,-0.007843,-0.007843,-1.960784,-1.960784,-1.960784,3
-4.235294,-2.823529,-31.058824,-0.007843,-0.007843,-0.007843,-1.960784,-1.960784,-1.960784,3
-4.235294,-2.823529,-31.058824,-0.007843,-0.007843,-0.007843,-1.960784,-1.960784,-1.960784,3
-4.235294,-2.823529,-31.058824,-0.007843,-0.007843,-0.007843,-1.960784,-1.960784,-1.960784,3
-4.235294,-2.823529,-31.058824,-0.007843,-0.007843,-0.007843,-1.960784,-1.960784,-1.960784,3
-4.235294,-2.823529,-31.058824,-0.007843,-0.007843,-0.007843,-1.960784,-1.960784,-1.960784,3
-4.235294,-2.823529,-31.058824,-0.007843,-0.007843,-0.007843,-1.960784,-1.960784,-1.960784,3
-4.235294,-2.823529,-31.058824,-0.007843,-0.007843,-0.007843,-1.960784,-1.960784,-1.960784,3
-4.235294,-2.823529,-31.058824,-0.007843,-0.007843,-0.007843,-1.960784,-1.960784,-1.960784,3
-4.235294,-2.823529,-31.058824,-0.007843,-0.007843,-0.007843,-1.960784,-1.960784,-1.960784,3
-4.235294,-2.823529,-31.058824,-0.007843,-0.007843,-0.007843,-1.960784,-1.960784,-1.960784,3
-4.235294,-2.823529,-31.058824,-0.007843,-0.007843,-0.007843,-1.960784,-1.960784,-1.960784,3
-4.235294,-2.823529,-31.058824,-0.007843,-0.007843,-0.007843,-1.960784,-1.960784,-1.960784,3
-4.235294,-2.823529,-31.058824,-0.007843,-0.007843,-0.007843,-1.960784,-1.960784,-1.960784,3
-4.235294,-2.823529,-31.058824,-0.007843,-0.007843,-0.007843,-1.960784,-1.960784,-1.960784,3
-4.235294,-2.823529,-31.058824,-0.007843,-0.007843,0.007843,-1.960784,-1.960784,-1.960784,3
-4.235294,-2.823529,-31.058824,-0.007843,-0.007843,-0.007843,-1.960784,-1.960784,-1.960784,3
-4.235294,-2.823529,-31.058824,-0.007843,-0.007843,-0.007843,-1.960784,-1.960784,-1.960784,3
-4.235294,-2.823529,-31.058824,-0.007843,-0.007843,-0.007843,-1.960784,-1.960784,-1.960784,3
-4.235294,-2.823529,-31.058824,-0.007843,-0.007843,-0.007843,-1.960784,-1.960784,-1.960784,3
-4.235294,-2.823529,-31.058824,-0.007843,-0.007843,-0.007843,-1.960784,-1.960784,-1.960784,3
-4.235294,-2.823529,-31.058824,-0.007843,-0.007843,-0.007843,-1.960784,-1.960784,-1.960784,3
-4.235294,-2.823529,-31.058824,-0.007843,-0.007843,-0.007843,-1.960784,-1.960784,-1.960784,3
-4.235294,-2.823529,-31.058824,-0.007843,-0.007843,-0.007843,-1.960784,-1.960784,-1.960784,3
-4.235294,-2.823529,-31.058824,-0.007843,-0.023529,-0.007843,-1.960784,-1.960784,-1.960784,3
-4.235294,-2.823529,-31.058824,-0.007843,-0.007843,-0.007843,-1.960784,-1.960784,-1.960784,3
-4.235294,-2.823529,-31.058824,-0.007843,-0.007843,-0.007843,-1.960784,-1.960784,-1.960784,3
-4.235294,-2.823529,-31.058824,-0.007843,-0.007843,-0.007843,-1.960784,-1.960784,-1.960784,3
-4.235294,-2.823529,-31.058824,0.007843,-0.007843,-0.007843,-1.960784,-1.960784,-1.960784,3
-4.235294,-2.823529,-31.058824,-0.007843,-0.007843,-0.007843,-1.960784,-1.960784,-1.960784,3
-4.235294,-2.823529,-31.058824,0.007843,-0.007843,-0.007843,-1.960784,-1.960784,-1.960784,3
-4.235294,-2.823529,-31.058824,-0.007843,-0.007843,0.007843,-1.960784,-1.960784,-1.960784,3
-4.235294,-2.823529,-31.058824,-0.007843,-0.007843,-0.007843,-1.960784,-1.960784,-1.960784,3
-4.235294,-2.823529,-31.058824,-0.007843,-0.007843,-0.007843,-1.960784,-1.960784,-1.960784,3
-4.235294,-2.823529,-31.058824,-0.007843,-0.007843,-0.007843,-1.960784,-1.960784,-1.960784,3
-4.235294,-2.823529,-31.058824,-0.007843,-0.007843,-0.007843,-1.960784,-1.960784,-1.960784,3
-4.235294,-2.823529,-31.058824,-0.007843,-0.007843,-0.007843,-1.960784,-1.960784,-1.960784,3
-4.235294,-2.823529,-31.058824,-0.007843,-0.007843,-0.007843,-1.960784,-1.960784,-1.960784,3
-4.235294,-2.823529,-31.058824,-0.007843,-0.007843,-0.007843,-1.960784,-1.960784,-1.960784,3
-4.235294,-2.823529,-31.058824,-0.007843,-0.007843,-0.007843,-1.960784,-1.960784,-1.960784,3
-4.235294,-2.823529,-31.058824,-0.007843,-0.007843,-0.007843,-1.960784,-1.960784,-1.960784,3
-4.235294,-2.823529,-31.058824,-0.007843,-0.007843,-0.007843,-1.960784,-1.960784,-1.960784,3
-4.235294,-2.823529,-31.058824,-0.007843,-0.007843,-0.007843,-1.960784,-1.960784,-1.960784,3
-4.235294,-2.823529,-31.058824,-0.007843,-0.007843,-0.007843,-1.960784,-1.960784,-1.960784,3
-4.235294,-2.823529,-31.058824,-0.007843,-0.007843,-0.007843,-1.960784,-1.960784,-1.960784,3
-4.235294,-2.823529,-31.058824,-0.007843,-0.007843,-0.007843,-1.960784,-1.960784,-1.960784,3
-4.235294,-2.823529,-31.058824,-0.007843,-0.007843,-0.007843,-1.960784,-1.960784,-1.960784,3
-4.235294,-2.823529,-31.058824,-0.007843,-0.007843,-0.007843,-1.960784,-1.960784,-1.960784,3
-4.235294,-2.823529,-31.058824,-0.007843,-0.007843,-0.007843,-1.960784,-1.960784,-1.960784,3
-4.235294,-2.823529,-31.058824,-0.007843,-0.023529,-0.007843,-1.960784,-1.960784,-1.960784,3
-4.235294,-2.823529,-31.058824,-0.007843,-0.007843,-0.007843,-1.960784,-1.960784,-1.960784,3
-4.235294,-2.823529,-31.058824,-0.007843,-0.007843,-0.007843,-1.960784,-1.960784,-1.960784,3
-4.235294,-2.823529,-31.058824,-0.007843,-0.007843,0.007843,-1.960784,-1.960784,-1.960784,3
-4.235294,-2.823529,-31.058824,-0.007843,-0.007843,-0.007843,-1.960784,-1.960784,-1.960784,3
-4.235294,-2.823529,-31.058824,-0.007843,-0.007843,-0.007843,-1.960784,-1.960784,-1.960784,3
-4.235294,-2.823529,-31.058824,-0.007843,-0.007843,-0.007843,-1.960784,-1.960784,-1.960784,3
-4.235294,-2.823529,-31.058824,-0.007843,-0.007843,-0.007843,-1.960784,-1.960784,-1.960784,3
-4.235294,-2.823529,-31.058824,-0.007843,-0.007843,-0.007843,-1.960784,-1.960784,-1.960784,3
-4.235294,-2.823529,-31.058824,-0.007843,-0.007843,-0.007843,-1.960784,-1.960784,-1.960784,3
-4.235294,-2.823529,-31.058824,-0.007843,-0.007843,-0.007843,-1.960784,-1.960784,-1.960784,3
-4.235294,-2.823529,-31.058824,0.007843,-0.023529,-0.007843,-1.960784,-1.960784,-1.960784,3
-4.235294,-2.823529,-31.058824,-0.007843,-0.007843,-0.007843,-1.960784,-1.960784,-1.960784,3
-4.235294,-2.823529,-31.058824,-0.007843,-0.007843,-0.007843,-1.960784,-1.960784,-1.960784,3
-4.235294,-2.823529,-31.058824,-0.007843,-0.007843,-0.007843,-1.960784,-1.960784,-1.960784,3
-4.235294,-2.823529,-31.058824,-0.007843,-0.007843,-0.007843,-1.960784,-1.960784,-1.960784,3
-4.235294,-2.823529,-31.058824,-0.007843,-0.007843,-0.007843,-1.960784,-1.960784,-1.960784,3
-4.235294,-2.823529,-31.058824,-0.007843,-0.007843,-0.007843,-1.960784,-1.960784,-1.960784,3
-4.235294,-2.823529,-31.058824,-0.007843,-0.007843,-0.007843,-1.960784,-1.960784,-1.960784,3
-4.235294,-2.823529,-31.058824,-0.007843,-0.007843,-0.007843,-1.960784,-1.960784,-1.960784,3
-4.235294,-2.823529,-31.058824,-0.007843,-0.007843,-0.007843,-1.960784,-1.960784,-1.960784,3
-4.235294,-2.823529,-31.058824,-0.007843,-0.023529,-0.007843,-1.960784,-1.960784,-1.960784,3
-4.235294,-2.823529,-31.058824,-0.007843,-0.007843,-0.007843,-1.960784,-1.960784,-1.960784,3
-4.235294,-2.823529,-31.058824,-0.007843,-0.007843,-0.007843,-1.960784,-1.960784,-1.960784,3
-4.235294,-2.823529,-31.058824,-0.007843,-0.007843,-0.007843,-1.960784,-1.960784,-1.960784,3
-4.235294,-2.823529,-31.058824,-0.007843,-0.007843,-0.007843,-1.960784,-1.960784,-1.960784,3
-4.235294,-2.823529,-31.058824,-0.007843,-0.007843,-0.007843,-1.960784,-1.960784,-1.960784,3
-4.235294,-2.823529,-31.058824,-0.007843,-0.023529,-0.007843,-1.960784,-1.960784,-1.960784,3
-4.235294,-2.823529,-31.058824,-0.007843,-0.007843,0.007843,-1.960784,-1.960784,-1.960784,3
-4.235294,-2.823529,-31.058824,-0.007843,-0.007843,-0.007843,-1.960784,-1.960784,-1.960784,3
-4.235294,-2.823529,-31.058824,-0.007843,-0.007843,-0.007843,-1.960784,-1.960784,-1.960784,3
-4.235294,-2.823529,-31.058824,-0.007843,-0.007843,-0.007843,-1.960784,-1.960784,-1.960784,3
-4.235294,-2.823529,-31.058824,-0.007843,-0.007843,-0.007843,-1.960784,-1.960784,-1.960784,3
-4.235294,-2.823529,-31.058824,-0.007843,-0.007843,-0.007843,-1.960784,-1.960784,-1.960784,3
-4.235294,-2.823529,-31.058824,-0.007843,-0.007843,-0.007843,-1.960784,-1.960784,-1.960784,3
-4.235294,-2.823529,-31.058824,-0.007843,-0.007843,-0.007843,-1.960784,-1.960784,-1.960784,3
-4.235294,-2.823529,-31.058824,-0.007843,-0.007843,-0.007843,-1.960784,-1.960784,-1.960784,3
-4.235294,-2.823529,-31.058824,-0.007843,-0.007843,-0.007843,-1.960784,-1.960784,-1.960784,3
-4.235294,-2.823529,-31.058824,-0.007843,-0.007843,-0.007843,-1.960784,-1.960784,-1.960784,3
-4.235294,-2.823529,-31.058824,-0.007843,-0.007843,-0.007843,-1.960784,-1.960784,-1.960784,3
-4.235294,-2.823529,-31.058824,-0.007843,-0.007843,-0.007843,-1.960784,-1.960784,-1.960784,3
-4.235294,-2.823529,-31.058824,-0.007843,-0.007843,-0.007843,-1.960784,-1.960784,-1.960784,3
-4.235294,-2.823529,-31.058824,-0.007843,-0.007843,-0.007843,-1.960784,-1.960784,-1.960784,3
-4.235294,-2.823529,-31.058824,-0.007843,-0.007843,-0.007843,-1.960784,-1.960784,-1.960784,3
-4.235294,-2.823529,-31.058824,-0.007843,-0.007843,-0.007843,-1.960784,-1.960784,-1.960784,3
-4.235294,-2.823529,-31.058824,-0.007843,-0.007843,-0.007843,-1.960784,-1.960784,-1.960784,3
-4.235294,-2.823529,-31.058824,-0.007843,-0.007843,-0.007843,-1.960784,-1.960784,-1.960784,3
-4.235294,-2.823529,-29.647059,-0.007843,-0.007843,-0.007843,-1.960784,-1.960784,-1.960784,3
-4.235294,-2.823529,-29.647059,-0.007843,-0.007843,-0.007843,-1.960784,-1.960784,-1.960784,3
-4.235294,-2.823529,-29.647059,-0.007843,-0.007843,-0.007843,-1.960784,-1.960784,-1.960784,3
-4.235294,-2.823529,-29.647059,-0.007843,-0.007843,-0.007843,-1.960784,-1.960784,-1.960784,3
-4.235294,-2.823529,-29.647059,-0.007843,-0.007843,-0.007843,-1.960784,-1.960784,-1.960784,3
-4.235294,-2.823529,-29.647059,-0.007843,-0.007843,-0.007843,-1.960784,-1.960784,-1.960784,3
-4.235294,-2.823529,-29.647059,-0.007843,-0.007843,-0.007843,-1.960784,-1.960784,-1.960784,3
-4.235294,-2.823529,-29.647059,-0.007843,-0.007843,-0.007843,-1.960784,-1.960784,-1.960784,3
-4.235294,-2.823529,-29.647059,-0.007843,-0.007843,-0.007843,-1.960784,-1.960784,-1.960784,3
-4.235294,-2.823529,-29.647059,-0.007843,-0.007843,-0.007843,-1.960784,-1.960784,-1.960784,3
-4.235294,-2.823529,-29.647059,-0.007843,-0.007843,-0.007843,-1.960784,-1.960784,-1.960784,3
-4.235294,-2.823529,-29.647059,-0.007843,-0.007843,-0.007843,-1.960784,-1.960784,-1.960784,3
-4.235294,-2.823529,-29.647059,-0.007843,-0.007843,-0.007843,-1.960784,-1.960784,-1.960784,3
-4.235294,-2.823529,-29.647059,-0.007843,-0.007843,-0.007843,-1.960784,-1.960784,-1.960784,3
-4.235294,-2.823529,-29.647059,-0.007843,-0.007843,-0.007843,-1.960784,-1.960784,-1.960784,3
-4.235294,-2.823529,-29.647059,-0.007843,-0.023529,-0.007843,-1.960784,-1.960784,-1.960784,3
-4.235294,-2.823529,-29.647059,-0.007843,-0.007843,-0.007843,-1.960784,-1.960784,-1.960784,3
-4.235294,-2.823529,-29.647059,-0.007843,-0.007843,-0.007843,-1.960784,-1.960784,-1.960784,3
-4.235294,-2.823529,-29.647059,-0.007843,-0.007843,-0.007843,-1.960784,-1.960784,-1.960784,3
-4.235294,-2.823529,-29.647059,-0.007843,-0.007843,-0.007843,-1.960784,-1.960784,-1.960784,3
-4.235294,-2.823529,-29.647059,-0.007843,-0.007843,-0.007843,-1.960784,-1.960784,-1.960784,3
-4.235294,-2.823529,-29.647059,-0.007843,-0.007843,0.007843,-1.960784,-1.960784,-1.960784,3
-4.235294,-2.823529,-29.647059,-0.007843,-0.007843,-0.007843,-1.960784,-1.960784,-1.960784,3
-4.235294,-2.823529,-29.647059,-0.007843,-0.007843,-0.007843,-1.960784,-1.960784,-1.960784,3
-4.235294,-2.823529,-29.647059,-0.007843,-0.007843,-0.007843,-1.960784,-1.960784,-1.960784,3
-4.235294,-2.823529,-29.647059,-0.007843,-0.007843,-0.007843,-1.960784,-1.960784,-1.960784,3
-4.235294,-2.823529,-29.647059,-0.007843,-0.007843,-0.007843,-1.960784,-1.960784,-1.960784,3
-4.235294,-2.823529,-29.647059,-0.007843,-0.007843,-0.007843,-1.960784,-1.960784,-1.960784,3
-4.235294,-2.823529,-29.647059,-0.007843,-0.007843,-0.007843,-1.960784,-1.960784,-1.960784,3
-4.235294,-2.823529,-29.647059,-0.007843,-0.007843,-0.007843,-1.960784,-1.960784,-1.960784,3
-4.235294,-2.823529,-29.647059,-0.007843,-0.007843,-0.007843,-1.960784,-1.960784,-1.960784,3
-4.235294,-2.823529,-29.647059,-0.007843,-0.007843,-0.007843,-1.960784,-1.960784,-1.960784,3
-4.235294,-2.823529,-29.647059,-0.007843,-0.007843,-0.007843,-1.960784,-1.960784,-1.960784,3
-4.235294,-2.823529,-29.647059,-0.007843,-0.007843,-0.007843,-1.960784,-1.960784,-1.960784,3
-4.235294,-2.823529,-29.647059,-0.007843,-0.023529,-0.007843,-1.960784,-1.960784,-1.960784,3
-4.235294,-2.823529,-29.647059,-0.007843,-0.007843,-0.007843,-1.960784,-1.960784,-1.960784,3
-4.235294,-2.823529,-29.647059,-0.007843,-0.007843,-0.007843,-1.960784,-1.960784,-1.960784,3
-4.235294,-2.823529,-29.647059,-0.007843,-0.007843,-0.007843,-1.960784,-1.960784,-1.960784,3
-4.235294,-2.823529,-29.647059,-0.007843,-0.007843,-0.007843,-1.960784,-1.960784,-1.960784,3
-4.235294,-2.823529,-29.647059,-0.007843,-0.007843,-0.007843,-1.960784,-1.960784,-1.960784,3
-4.235294,-2.823529,-29.647059,-0.007843,-0.007843,-0.007843,-1.960784,-1.960784,-1.960784,3
-4.235294,-2.823529,-29.647059,-0.007843,-0.007843,-0.007843,-1.960784,-1.960784,-1.960784,3
-4.235294,-2.823529,-29.647059,-0.007843,-0.007843,-0.007843,-1.960784,-1.960784,-1.960784,3
-4.235294,-2.823529,-29.647059,-0.007843,-0.007843,-0.007843,-1.960784,-1.960784,-1.960784,3
-4.235294,-2.823529,-29.647059,-0.007843,-0.007843,-0.007843,-1.960784,-1.960784,-1.960784,3
-4.235294,-2.823529,-29.647059,-0.007843,-0.023529,-0.007843,-1.960784,-1.960784,-1.960784,3
-4.235294,-2.823529,-29.647059,-0.007843,-0.007843,-0.007843,-1.960784,-1.960784,-1.960784,3
-4.235294,-2.823529,-29.647059,-0.007843,-0.007843,-0.007843,-1.960784,-1.960784,-1.960784,3
-4.235294,-2.823529,-29.647059,-0.007843,-0.007843,-0.007843,-1.960784,-1.960784,-1.960784,3
-4.235294,-2.823529,-29.647059,-0.007843,-0.007843,-0.007843,-1.960784,-1.960784,-1.960784,3
-4.235294,-2.823529,-29.647059,-0.007843,-0.007843,-0.007843,-1.960784,-1.960784,-1.960784,3
-4.235294,-2.823529,-29.647059,-0.007843,-0.007843,-0.007843,-1.960784,-1.960784,-1.960784,3
-4.235294,-2.823529,-29.647059,-0.007843,-0.007843,-0.007843,-1.960784,-1.960784,-1.960784,3
-4.235294,-2.823529,-29.647059,-0.007843,-0.007843,-0.007843,-1.960784,-1.960784,-1.960784,3
-4.235294,-2.823529,-29.647059,-0.007843,-0.007843,-0.007843,-1.960784,-1.960784,-1.960784,3
-4.235294,-2.823529,-29.647059,-0.007843,-0.007843,-0.007843,-1.960784,-1.960784,-1.960784,3
-4.235294,-2.823529,-29.647059,-0.007843,-0.007843,-0.007843,-1.960784,-1.960784,-1.960784,3
-4.235294,-2.823529,-29.647059,-0.007843,-0.007843,-0.007843,-1.960784,-1.960784,-1.960784,3
-4.235294,-2.823529,-29.647059,-0.007843,-0.007843,-0.007843,-1.960784,-1.960784,-1.960784,3
-4.235294,-2.823529,-29.647059,-0.007843,-0.007843,-0.007843,-1.960784,-1.960784,-1.960784,3
-4.235294,-2.823529,-29.647059,-0.007843,-0.007843,-0.007843,-1.960784,-1.960784,-1.960784,3
-4.235294,-2.823529,-29.647059,-0.007843,-0.023529,-0.007843,-1.960784,-1.960784,-1.960784,3
-4.235294,-2.823529,-29.647059,-0.007843,-0.007843,-0.007843,-1.960784,-1.960784,-1.960784,3
-4.235294,-2.823529,-29.647059,-0.007843,-0.007843,-0.007843,-1.960784,-1.960784,-1.960784,3
-4.235294,-2.823529,-29.647059,-0.007843,-0.007843,-0.007843,-1.960784,-1.960784,-1.960784,3
-4.235294,-2.823529,-29.647059,-0.007843,-0.007843,0.007843,-1.960784,-1.960784,-1.960784,3
-4.235294,-2.823529,-29.647059,-0.007843,-0.007843,-0.007843,-1.960784,-1.960784,-1.960784,3
-4.235294,-2.823529,-29.647059,-0.007843,-0.007843,-0.007843,-1.960784,-1.960784,-1.960784,3
-4.235294,-2.823529,-29.647059,-0.007843,-0.007843,-0.007843,-1.960784,-1.960784,-1.960784,3
-4.235294,-2.823529,-29.647059,-0.007843,-0.007843,-0.007843,-1.960784,-1.960784,-1.960784,3
-4.235294,-2.823529,-29.647059,-0.007843,-0.007843,-0.007843,-1.960784,-1.960784,-1.960784,3
-4.235294,-2.823529,-29.647059,-0.007843,-0.007843,-0.007843,-1.960784,-1.960784,-1.960784,3
-4.235294,-2.823529,-29.647059,-0.007843,-0.007843,-0.007843,-1.960784,-1.960784,-1.960784,3
-4.235294,-2.823529,-29.647059,-0.007843,-0.007843,-0.007843,-1.960784,-1.960784,-1.960784,3
-4.235294,-2.823529,-29.647059,-0.007843,-0.007843,-0.007843,-1.960784,-1.960784,-1.960784,3
-4.235294,-2.823529,-29.647059,-0.007843,-0.007843,-0.007843,-1.960784,-1.960784,-1.960784,3
-4.235294,-2.823529,-29.647059,-0.007843,-0.007843,-0.023529,-1.960784,-1.960784,-1.960784,3
-4.235294,-2.823529,-29.647059,-0.007843,-0.007843,-0.007843,-1.960784,-1.960784,-1.960784,3
-4.235294,-2.823529,-29.647059,-0.007843,-0.007843,-0.007843,-1.960784,-1.960784,-1.960784,3
-4.235294,-2.823529,-29.647059,-0.007843,-0.007843,-0.007843,-1.960784,-1.960784,-1.960784,3
-4.235294,-2.823529,-29.647059,-0.007843,-0.023529,-0.007843,-1.960784,-1.960784,-1.960784,3
-4.235294,-2.823529,-29.647059,-0.007843,-0.007843,-0.007843,-1.960784,-1.960784,-1.960784,3
-4.235294,-2.823529,-29.647059,-0.007843,-0.007843,-0.007843,-1.960784,-1.960784,-1.960784,3
-4.235294,-2.823529,-29.647059,-0.007843,-0.007843,-0.007843,-1.960784,-1.960784,-1.960784,3
-4.235294,-2.823529,-29.647059,-0.007843,-0.007843,-0.007843,-1.960784,-1.960784,-1.960784,3
-4.235294,-2.823529,-29.647059,-0.007843,-0.007843,-0.007843,-1.960784,-1.960784,-1.960784,3
-4.235294,-2.823529,-29.647059,-0.007843,-0.023529,-0.007843,-1.960784,-1.960784,-1.960784,3
-4.235294,-2.823529,-29.647059,-0.007843,-0.007843,-0.007843,-1.960784,-1.960784,-1.960784,3
-4.235294,-2.823529,-29.647059,-0.007843,-0.007843,-0.007843,-1.960784,-1.960784,-1.960784,3
-4.235294,-2.823529,-29.647059,-0.007843,-0.007843,-0.007843,-1.960784,-1.960784,-1.960784,3
-4.235294,-2.823529,-29.647059,-0.007843,-0.007843,-0.007843,-1.960784,-1.960784,-1.960784,3
-4.235294,-2.823529,-29.647059,-0.007843,-0.007843,-0.007843,-1.960784,-1.960784,-1.960784,3
-4.235294,-2.823529,-29.647059,-0.007843,-0.007843,-0.007843,-1.960784,-1.960784,-1.960784,3
-4.235294,-2.823529,-29.647059,-0.007843,-0.007843,-0.007843,-1.960784,-1.960784,-1.960784,3
-4.235294,-2.823529,-29.647059,-0.007843,-0.023529,-0.007843,-1.960784,-1.960784,-1.960784,3
-4.235294,-2.823529,-29.647059,-0.007843,-0.007843,-0.007843,-1.960784,-1.960784,-1.960784,3
-4.235294,-2.823529,-29.647059,-0.007843,-0.007843,-0.007843,-1.960784,-1.960784,-1.960784,3
-4.235294,-2.823529,-29.647059,-0.007843,-0.007843,-0.007843,-1.960784,-1.960784,-1.960784,3
-4.235294,-2.823529,-29.647059,-0.007843,-0.007843,-0.007843,-1.960784,-1.960784,-1.960784,3
-4.235294,-2.823529,-29.647059,-0.007843,-0.007843,-0.007843,-1.960784,-1.960784,-1.960784,3
-4.235294,-2.823529,-29.647059,-0.007843,-0.007843,-0.007843,-1.960784,-1.960784,-1.960784,3
-4.235294,-2.823529,-29.647059,-0.007843,-0.007843,-0.007843,-1.960784,-1.960784,-1.960784,3
-4.235294,-2.823529,-29.647059,-0.007843,-0.007843,-0.007843,-1.960784,-1.960784,-1.960784,3
-4.235294,-2.823529,-29.647059,-0.007843,-0.007843,-0.007843,-1.960784,-1.960784,-1.960784,3
-4.235294,-2.823529,-29.647059,-0.007843,-0.007843,-0.007843,-1.960784,-1.960784,-1.960784,3
-4.235294,-2.823529,-29.647059,-0.007843,-0.007843,-0.007843,-1.960784,-1.960784,-1.960784,3
-4.235294,-2.823529,-29.647059,-0.007843,-0.007843,-0.007843,-1.960784,-1.960784,-1.960784,3
-4.235294,-2.823529,-29.647059,-0.007843,-0.007843,-0.007843,-1.960784,-1.960784,-1.960784,3
-4.235294,-2.823529,-29.647059,-0.007843,-0.007843,-0.007843,-1.960784,-1.960784,-1.960784,3
-4.235294,-2.823529,-29.647059,-0.007843,-0.007843,-0.007843,-1.960784,-1.960784,-1.960784,3
-4.235294,-2.823529,-29.647059,-0.007843,-0.007843,-0.007843,-1.960784,-1.960784,-1.960784,3
-4.235294,-2.823529,-29.647059,-0.007843,-0.007843,-0.007843,-1.960784,-1.960784,-1.960784,3
-4.235294,-2.823529,-29.647059,-0.007843,-0.007843,-0.007843,-1.960784,-1.960784,-1.960784,3
-4.235294,-2.823529,-29.647059,-0.007843,-0.007843,-0.007843,-1.960784,-1.960784,-1.960784,3
-4.235294,-2.823529,-29.647059,-0.007843,-0.007843,-0.007843,-1.960784,-1.960784,-1.960784,3
-4.235294,-2.823529,-29.647059,-0.007843,-0.007843,-0.007843,-1.960784,-1.960784,-1.960784,3
-4.235294,-2.823529,-29.647059,-0.007843,-0.007843,-0.007843,-1.960784,-1.960784,-1.960784,3
-4.235294,-2.823529,-29.647059,-0.007843,-0.007843,-0.007843,-1.960784,-1.960784,-1.960784,3
-4.235294,-2.823529,-29.647059,-0.007843,-0.007843,-0.007843,-1.960784,-1.960784,-1.960784,3
-4.235294,-2.823529,-29.647059,-0.007843,-0.007843,-0.007843,-1.960784,-1.960784,-1.960784,3
-4.235294,-2.823529,-29.647059,-0.007843,-0.007843,-0.007843,-1.960784,-1.960784,-1.960784,3
-4.235294,-2.823529,-28.235294,-0.007843,-0.007843,-0.007843,-1.960784,-1.960784,-1.960784,3
-4.235294,-2.823529,-28.235294,-0.007843,-0.007843,-0.007843,-1.960784,-1.960784,-1.960784,3
-4.235294,-2.823529,-28.235294,-0.007843,-0.023529,-0.007843,-1.960784,-1.960784,-1.960784,3
-4.235294,-2.823529,-28.235294,-0.007843,-0.007843,-0.007843,-1.960784,-1.960784,-1.960784,3
-4.235294,-2.823529,-28.235294,-0.007843,-0.007843,-0.007843,-1.960784,-1.960784,-1.960784,3
-4.235294,-2.823529,-28.235294,-0.007843,-0.007843,-0.007843,-1.960784,-1.960784,-1.960784,3
-4.235294,-2.823529,-28.235294,-0.007843,-0.007843,-0.007843,-1.960784,-1.960784,-1.960784,3
-4.235294,-2.823529,-28.235294,-0.007843,-0.007843,-0.007843,-1.960784,-1.960784,-1.960784,3
-4.235294,-2.823529,-28.235294,-0.007843,-0.007843,-0.007843,-1.960784,-1.960784,-1.960784,3
-4.235294,-2.823529,-28.235294,-0.007843,-0.007843,-0.007843,-1.960784,-1.960784,-1.960784,3
-4.235294,-2.823529,-28.235294,-0.007843,-0.007843,-0.007843,-1.960784,-1.960784,-1.960784,3
-4.235294,-2.823529,-28.235294,-0.007843,-0.007843,-0.007843,-1.960784,-1.960784,-1.960784,3
-4.235294,-2.823529,-28.235294,-0.007843,-0.007843,-0.007843,-1.960784,-1.960784,-1.960784,3
-4.235294,-2.823529,-28.235294,-0.007843,-0.007843,-0.007843,-1.960784,-1.960784,-1.960784,3
-4.235294,-2.823529,-28.235294,-0.007843,-0.007843,-0.007843,-1.960784,-1.960784,-1.960784,3
-4.235294,-2.823529,-28.235294,-0.007843,-0.007843,-0.007843,-1.960784,-1.960784,-1.960784,3
-4.235294,-2.823529,-28.235294,-0.007843,-0.007843,-0.007843,-1.960784,-1.960784,-1.960784,3
-4.235294,-2.823529,-28.235294,-0.007843,-0.007843,-0.007843,-1.960784,-1.960784,-1.960784,3
-4.235294,-2.823529,-28.235294,-0.007843,-0.007843,-0.007843,-1.960784,-1.960784,-1.960784,3
-4.235294,-2.823529,-28.235294,-0.007843,-0.007843,0.007843,-1.960784,-1.960784,-1.960784,3
-4.235294,-2.823529,-28.235294,-0.007843,-0.007843,-0.007843,-1.960784,-1.960784,-1.960784,3
-4.235294,-2.823529,-28.235294,-0.007843,-0.007843,-0.007843,-1.960784,-1.960784,-1.960784,3
-4.235294,-2.823529,-28.235294,-0.007843,-0.023529,-0.007843,-1.960784,-1.960784,-1.960784,3
-4.235294,-2.823529,-28.235294,-0.007843,-0.007843,-0.007843,-1.960784,-1.960784,-1.960784,3
-4.235294,-2.823529,-28.235294,-0.007843,-0.007843,-0.007843,-1.960784,-1.960784,-1.960784,3
-4.235294,-2.823529,-28.235294,-0.007843,-0.007843,-0.007843,-1.960784,-1.960784,-1.960784,3
-4.235294,-2.823529,-28.235294,-0.007843,-0.007843,-0.007843,-1.960784,-1.960784,-1.960784,3
-4.235294,-2.823529,-28.235294,-0.007843,-0.007843,-0.007843,-1.960784,-1.960784,-1.960784,3
-4.235294,-2.823529,-28.235294,-0.007843,-0.007843,-0.007843,-1.960784,-1.960784,-1.960784,3
-4.235294,-2.823529,-28.235294,-0.007843,-0.007843,-0.007843,-1.960784,-1.960784,-1.960784,3
-4.235294,-2.823529,-28.235294,-0.007843,-0.007843,-0.007843,-1.960784,-1.960784,-1.960784,3
-4.235294,-2.823529,-28.235294,-0.007843,-0.007843,-0.007843,-1.960784,-1.960784,-1.960784,3
-4.235294,-2.823529,-28.235294,-0.007843,-0.007843,-0.007843,-1.960784,-1.960784,-1.960784,3
-4.235294,-2.823529,-28.235294,-0.007843,-0.007843,-0.007843,-1.960784,-1.960784,-1.960784,3
-4.235294,-2.823529,-28.235294,-0.007843,-0.007843,-0.007843,-1.960784,-1.960784,-1.960784,3
-4.235294,-2.823529,-28.235294,-0.007843,-0.007843,-0.007843,-1.960784,-1.960784,-1.960784,3
-4.235294,-2.823529,-28.235294,-0.007843,-0.007843,-0.007843,-1.960784,-1.960784,-1.960784,3
-4.235294,-2.823529,-28.235294,-0.007843,-0.007843,-0.007843,-1.960784,-1.960784,-1.960784,3
-4.235294,-2.823529,-28.235294,-0.007843,-0.007843,-0.007843,-1.960784,-1.960784,-1.960784,3
-4.235294,-2.823529,-28.235294,0.007843,-0.007843,-0.007843,-1.960784,-1.960784,-1.960784,3
-4.235294,-2.823529,-28.235294,-0.007843,-0.007843,-0.007843,-1.960784,-1.960784,-1.960784,3
-4.235294,-2.823529,-28.235294,-0.007843,-0.007843,-0.007843,-1.960784,-1.960784,-1.960784,3
-4.235294,-2.823529,-28.235294,-0.007843,-0.007843,-0.007843,-1.960784,-1.960784,-1.960784,3
-4.235294,-2.823529,-28.235294,-0.007843,-0.007843,-0.007843,-1.960784,-1.960784,-1.960784,3
-4.235294,-2.823529,-28.235294,-0.007843,-0.007843,-0.007843,-1.960784,-1.960784,-1.960784,3
-4.235294,-2.823529,-28.235294,-0.007843,-0.007843,-0.007843,-1.960784,-1.960784,-1.960784,3
-4.235294,-2.823529,-28.235294,-0.007843,-0.007843,-0.007843,-1.960784,-1.960784,-1.960784,3
-4.235294,-2.823529,-28.235294,-0.007843,-0.023529,-0.007843,-1.960784,-1.960784,-1.960784,3
-4.235294,-2.823529,-28.235294,-0.007843,-0.007843,-0.007843,-1.960784,-1.960784,-1.960784,3
-4.235294,-2.823529,-28.235294,-0.007843,-0.007843,-0.007843,-1.960784,-1.960784,-1.960784,3
-4.235294,-2.823529,-28.235294,-0.007843,-0.007843,-0.007843,-1.960784,-1.960784,-1.960784,3
-4.235294,-2.823529,-28.235294,-0.007843,-0.007843,-0.007843,-1.960784,-1.960784,-1.960784,3
-4.235294,-2.823529,-28.235294,-0.007843,-0.007843,-0.007843,-1.960784,-1.960784,-1.960784,3
-4.235294,-2.823529,-28.235294,-0.007843,-0.007843,-0.007843,-1.960784,-1.960784,-1.960784,3
-4.235294,-2.823529,-28.235294,-0.007843,-0.007843,-0.007843,-1.960784,-1.960784,-1.960784,3
-4.235294,-2.823529,-28.235294,-0.007843,-0.007843,-0.007843,-1.960784,-1.960784,-1.960784,3
-4.235294,-2.823529,-28.235294,-0.007843,-0.007843,-0.007843,-1.960784,-1.960784,-1.960784,3
-4.235294,-2.823529,-28.235294,-0.007843,-0.007843,-0.007843,-1.960784,-1.960784,-1.960784,3
-4.235294,-2.823529,-28.235294,-0.007843,-0.007843,-0.007843,-1.960784,-1.960784,-1.960784,3
-4.235294,-2.823529,-28.235294,-0.007843,-0.007843,-0.007843,-1.960784,-1.960784,-1.960784,3
-4.235294,-2.823529,-28.235294,-0.007843,-0.007843,-0.007843,-1.960784,-1.960784,-1.960784,3
-4.235294,-2.823529,-28.235294,-0.007843,-0.007843,-0.007843,-1.960784,-1.960784,-1.960784,3
-4.235294,-2.823529,-28.235294,-0.007843,-0.007843,-0.007843,-1.960784,-1.960784,-1.960784,3
-4.235294,-2.823529,-28.235294,-0.007843,-0.007843,-0.007843,-1.960784,-1.960784,-1.960784,3
-4.235294,-2.823529,-28.235294,-0.007843,-0.007843,-0.007843,-1.960784,-1.960784,-1.960784,3
-4.235294,-2.823529,-28.235294,-0.007843,-0.007843,-0.007843,-1.960784,-1.960784,-1.960784,3
-4.235294,-2.823529,-28.235294,-0.007843,-0.007843,-0.007843,-1.960784,-1.960784,-1.960784,3
-4.235294,-2.823529,-28.235294,-0.007843,-0.007843,-0.007843,-1.960784,-1.960784,-1.960784,3
-4.235294,-2.823529,-28.235294,-0.007843,-0.007843,-0.007843,-1.960784,-1.960784,-1.960784,3
-4.235294,-2.823529,-28.235294,-0.007843,-0.007843,-0.007843,-1.960784,-1.960784,-1.960784,3
-4.235294,-2.823529,-28.235294,-0.007843,-0.007843,-0.007843,-1.960784,-1.960784,-1.960784,3
-4.235294,-2.823529,-28.235294,-0.007843,-0.007843,-0.007843,-1.960784,-1.960784,-1.960784,3
-4.235294,-2.823529,-28.235294,-0.007843,-0.007843,-0.007843,-1.960784,-1.960784,-1.960784,3
-4.235294,-2.823529,-28.235294,-0.007843,-0.007843,-0.007843,-1.960784,-1.960784,-1.960784,3
-4.235294,-2.823529,-28.235294,-0.007843,-0.007843,-0.007843,-1.960784,-1.960784,-1.960784,3
-4.235294,-2.823529,-28.235294,-0.007843,-0.007843,-0.007843,-1.960784,-1.960784,-1.960784,3
-4.235294,-2.823529,-28.235294,-0.007843,-0.007843,0.007843,-1.960784,-1.960784,-1.960784,3
-4.235294,-2.823529,-28.235294,-0.007843,-0.007843,-0.007843,-1.960784,-1.960784,-1.960784,3
-4.235294,-2.823529,-28.235294,-0.007843,-0.007843,-0.007843,-1.960784,-1.960784,-1.960784,3
-4.235294,-2.823529,-28.235294,-0.007843,-0.007843,-0.007843,-1.960784,-1.960784,-1.960784,3
-4.235294,-2.823529,-28.235294,-0.007843,-0.007843,-0.007843,-1.960784,-1.960784,-1.960784,3
-4.235294,-2.823529,-28.235294,-0.007843,-0.007843,-0.007843,-1.960784,-1.960784,-1.960784,3
-4.235294,-2.823529,-28.235294,-0.007843,-0.007843,-0.007843,-1.960784,-1.960784,-1.960784,3
-4.235294,-2.823529,-28.235294,-0.007843,-0.007843,-0.007843,-1.960784,-1.960784,-1.960784,3
-4.235294,-2.823529,-28.235294,-0.007843,-0.007843,-0.007843,-1.960784,-1.960784,-1.960784,3
-4.235294,-2.823529,-28.235294,-0.007843,-0.007843,-0.007843,-1.960784,-1.960784,-1.960784,3
-4.235294,-2.823529,-28.235294,-0.007843,-0.007843,-0.007843,-1.960784,-1.960784,-1.960784,3
-4.235294,-2.823529,-28.235294,-0.007843,-0.007843,-0.007843,-1.960784,-1.960784,-1.960784,3
-4.235294,-2.823529,-28.235294,-0.007843,-0.007843,-0.007843,-1.960784,-1.960784,-1.960784,3
-4.235294,-2.823529,-28.235294,-0.007843,-0.007843,-0.007843,-1.960784,-1.960784,-1.960784,3
-4.235294,-2.823529,-28.235294,-0.007843,-0.007843,-0.007843,-1.960784,-1.960784,-1.960784,3
-4.235294,-2.823529,-28.235294,-0.007843,-0.007843,-0.007843,-1.960784,-1.960784,-1.960784,3
-4.235294,-2.823529,-28.235294,-0.007843,-0.007843,-0.007843,-1.960784,-1.960784,-1.960784,3
-4.235294,-2.823529,-28.235294,-0.007843,-0.007843,-0.007843,-1.960784,-1.960784,-1.960784,3
-4.235294,-2.823529,-28.235294,-0.007843,-0.007843,-0.007843,-1.960784,-1.960784,-1.960784,3
-4.235294,-2.823529,-28.235294,-0.007843,-0.007843,-0.007843,-1.960784,-1.960784,-1.960784,3
-4.235294,-2.823529,-28.235294,-0.007843,-0.007843,-0.007843,-1.960784,-1.960784,-1.960784,3
-4.235294,-2.823529,-28.235294,-0.007843,-0.007843,-0.007843,-1.960784,-1.960784,-1.960784,3
-4.235294,-2.823529,-28.235294,-0.007843,-0.007843,-0.007843,-1.960784,-1.960784,-1.960784,3
-4.235294,-2.823529,-28.235294,-0.007843,-0.007843,-0.007843,-1.960784,-1.960784,-1.960784,3
-4.235294,-2.823529,-28.235294,-0.007843,-0.007843,-0.007843,-1.960784,-1.960784,-1.960784,3
-4.235294,-2.823529,-28.235294,0.007843,-0.007843,-0.007843,-1.960784,-1.960784,-1.960784,3
-4.235294,-2.823529,-28.235294,-0.007843,-0.007843,-0.007843,-1.960784,-1.960784,-1.960784,3
-4.235294,-2.823529,-28.235294,0.007843,-0.023529,-0.007843,-1.960784,-1.960784,-1.960784,3
-4.235294,-2.823529,-28.235294,-0.007843,-0.007843,-0.007843,-1.960784,-1.960784,-1.960784,3
-4.235294,-2.823529,-28.235294,-0.007843,-0.007843,-0.007843,-1.960784,-1.960784,-1.960784,3
-4.235294,-2.823529,-28.235294,-0.007843,-0.007843,-0.007843,-1.960784,-1.960784,-1.960784,3
-4.235294,-2.823529,-28.235294,0.007843,-0.007843,-0.007843,-1.960784,-1.960784,-1.960784,3
-4.235294,-2.823529,-28.235294,-0.007843,-0.007843,-0.007843,-1.960784,-1.960784,-1.960784,3
-4.235294,-2.823529,-28.235294,-0.007843,-0.007843,-0.007843,-1.960784,-1.960784,-1.960784,3
-4.235294,-2.823529,-28.235294,-0.007843,-0.007843,-0.007843,-1.960784,-1.960784,-1.960784,3
-4.235294,-2.823529,-28.235294,-0.007843,-0.007843,-0.007843,-1.960784,-1.960784,-1.960784,3
-4.235294,-2.823529,-28.235294,-0.007843,-0.007843,-0.007843,-1.960784,-1.960784,-1.960784,3
-4.235294,-2.823529,-28.235294,-0.007843,-0.007843,-0.007843,-1.960784,-1.960784,-1.960784,3
-4.235294,-2.823529,-28.235294,-0.007843,-0.007843,-0.007843,-1.960784,-1.960784,-1.960784,3
-4.235294,-2.823529,-28.235294,-0.007843,-0.007843,-0.007843,-1.960784,-1.960784,-1.960784,3
-4.235294,-2.823529,-28.235294,-0.007843,-0.007843,-0.007843,-1.960784,-1.960784,-1.960784,3
-4.235294,-2.823529,-28.235294,-0.007843,-0.023529,-0.007843,-1.960784,-1.960784,-1.960784,3
-4.235294,-2.823529,-28.235294,-0.007843,-0.007843,-0.007843,-1.960784,-1.960784,-1.960784,3
-4.235294,-2.823529,-28.235294,-0.007843,-0.007843,-0.007843,-1.960784,-1.960784,-1.960784,3
-4.235294,-2.823529,-28.235294,-0.007843,-0.007843,-0.007843,-1.960784,-1.960784,-1.960784,3
-4.235294,-2.823529,-28.235294,-0.007843,-0.007843,-0.007843,-1.960784,-1.960784,-1.960784,3
-4.235294,-2.823529,-28.235294,-0.007843,-0.007843,-0.007843,-1.960784,-1.960784,-1.960784,3
-4.235294,-2.823529,-28.235294,-0.007843,-0.007843,-0.007843,-1.960784,-1.960784,-1.960784,3
-4.235294,-2.823529,-28.235294,-0.007843,-0.007843,-0.007843,-1.960784,-1.960784,-1.960784,3
-4.235294,-2.823529,-28.235294,-0.007843,-0.007843,-0.007843,-1.960784,-1.960784,-1.960784,3
-4.235294,-2.823529,-26.823529,-0.007843,-0.007843,-0.007843,-1.960784,-1.960784,-1.960784,3
-4.235294,-2.823529,-26.823529,-0.007843,-0.007843,-0.007843,-1.960784,-1.960784,-1.960784,3
-4.235294,-2.823529,-26.823529,-0.007843,-0.007843,-0.007843,-1.960784,-1.960784,-1.960784,3
-4.235294,-2.823529,-26.823529,-0.007843,-0.023529,0.007843,-1.960784,-1.960784,-1.960784,3
-4.235294,-2.823529,-26.823529,-0.007843,-0.007843,-0.007843,-1.960784,-1.960784,-1.960784,3
-4.235294,-2.823529,-26.823529,-0.007843,-0.007843,-0.007843,-1.960784,-1.960784,-1.960784,3
-4.235294,-2.823529,-26.823529,-0.007843,-0.007843,-0.007843,-1.960784,-1.960784,-1.960784,3
-4.235294,-2.823529,-26.823529,-0.007843,-0.007843,-0.007843,-1.960784,-1.960784,-1.960784,3
-4.235294,-2.823529,-26.823529,-0.007843,-0.007843,-0.007843,-1.960784,-1.960784,-1.960784,3
-4.235294,-2.823529,-26.823529,-0.007843,-0.007843,-0.007843,-1.960784,-1.960784,-1.960784,3
