Eulerx,Eulery,Eulerz,Accx,Accy,Accz,Gyrox,Gyroy,Gyroz,Label
-2.823529,0,-8.470588,-0.007843,0.007843,-0.007843,-1.960784,-1.960784,-1.960784,Null
-2.823529,0,-8.470588,-0.007843,-0.007843,-0.007843,-1.960784,-1.960784,-1.960784,Null
-2.823529,0,-8.470588,-0.007843,-0.007843,-0.007843,-1.960784,-1.960784,-1.960784,Null
-2.823529,0,-8.470588,-0.007843,-0.007843,-0.007843,-1.960784,-1.960784,-1.960784,Null
-2.823529,0,-8.470588,-0.007843,-0.007843,-0.007843,-1.960784,-1.960784,-1.960784,Null
-2.823529,0,-8.470588,-0.007843,-0.007843,-0.007843,-1.960784,-1.960784,-1.960784,Null
-2.823529,0,-8.470588,-0.007843,-0.007843,-0.007843,-1.960784,-1.960784,-1.960784,Null
-2.823529,0,-8.470588,-0.007843,-0.007843,-0.007843,-1.960784,-1.960784,-1.960784,Null
-2.823529,0,-8.470588,-0.007843,-0.007843,-0.023529,-1.960784,-1.960784,-1.960784,Null
-2.823529,0,-8.470588,-0.007843,-0.007843,-0.007843,-1.960784,-1.960784,-1.960784,Null
-2.823529,0,-8.470588,-0.007843,-0.007843,-0.007843,-1.960784,-1.960784,-1.960784,Null
-2.823529,0,-8.470588,-0.007843,-0.007843,-0.007843,-1.960784,-1.960784,-1.960784,Null
-2.823529,0,-8.470588,-0.007843,-0.007843,-0.007843,-1.960784,-1.960784,-1.960784,Null
-2.823529,0,-8.470588,-0.007843,-0.007843,-0.007843,-1.960784,-1.960784,-1.960784,Null
-2.823529,0,-8.470588,-0.007843,-0.007843,-0.007843,-1.960784,-1.960784,-1.960784,Null
-2.823529,0,-8.470588,-0.007843,-0.007843,-0.007843,-1.960784,-1.960784,-1.960784,Null
-2.823529,0,-8.470588,-0.007843,-0.007843,0.007843,-1.960784,-1.960784,-1.960784,Null
-2.823529,0,-8.470588,0.007843,0.023529,0.007843,-1.960784,-1.960784,-1.960784,Null
-2.823529,0,-8.470588,-0.007843,-0.007843,-0.007843,-1.960784,-1.960784,-1.960784,3
-2.823529,0,-8.470588,-0.007843,-0.007843,-0.007843,-1.960784,-1.960784,-1.960784,3
-2.823529,0,-8.470588,-0.007843,-0.007843,-0.007843,-1.960784,-1.960784,-1.960784,3
-2.823529,0,-8.470588,-0.007843,-0.007843,-0.007843,-1.960784,-1.960784,-1.960784,3
-2.823529,0,-8.470588,-0.007843,-0.007843,-0.039216,-5.882353,-1.960784,-1.960784,3
-2.823529,0,-8.470588,-0.039216,-0.039216,-0.023529,-1.960784,-1.960784,-1.960784,3
-2.823529,0,-8.470588,-0.023529,-0.039216,-0.023529,-1.960784,-1.960784,-1.960784,3
-2.823529,0,-8.470588,-0.023529,-0.023529,-0.007843,-1.960784,-1.960784,-1.960784,3
-2.823529,0,-8.470588,-0.007843,-0.007843,-0.007843,-1.960784,-1.960784,-1.960784,3
-2.823529,0,-8.470588,-0.007843,0.007843,0.023529,-1.960784,-1.960784,-1.960784,3
-2.823529,0,-8.470588,0.023529,0.023529,-0.007843,-1.960784,-1.960784,-1.960784,3
-2.823529,0,-8.470588,-0.007843,-0.007843,-0.007843,-1.960784,-1.960784,-1.960784,3
-2.823529,0,-8.470588,-0.007843,-0.023529,-0.007843,-1.960784,-1.960784,-1.960784,3
-2.823529,0,-8.470588,-0.007843,-0.007843,-0.023529,-1.960784,-1.960784,-1.960784,3
-2.823529,0,-8.470588,-0.007843,-0.007843,-0.007843,-1.960784,-1.960784,-1.960784,3
-2.823529,0,-8.470588,-0.007843,-0.007843,-0.007843,-1.960784,-1.960784,-1.960784,3
-2.823529,0,-8.470588,-0.007843,-0.007843,-0.007843,-1.960784,-1.960784,-1.960784,3
-2.823529,0,-8.470588,-0.007843,-0.007843,-0.007843,-1.960784,-1.960784,-1.960784,3
-2.823529,0,-8.470588,-0.007843,-0.007843,-0.007843,-1.960784,-1.960784,-1.960784,3
-2.823529,0,-8.470588,-0.007843,-0.007843,-0.007843,-1.960784,-1.960784,-1.960784,3
-2.823529,0,-8.470588,-0.007843,-0.007843,-0.007843,-1.960784,-1.960784,-1.960784,3
-2.823529,0,-8.470588,-0.007843,-0.007843,-0.007843,-1.960784,-1.960784,-1.960784,3
-2.823529,0,-8.470588,-0.007843,-0.007843,-0.007843,-1.960784,-1.960784,-1.960784,3
-2.823529,0,-8.470588,-0.007843,-0.007843,-0.007843,-1.960784,-1.960784,-1.960784,3
-2.823529,0,-8.470588,-0.007843,-0.007843,-0.007843,-1.960784,-1.960784,-1.960784,3
-2.823529,0,-8.470588,-0.007843,-0.007843,-0.007843,-1.960784,-1.960784,-1.960784,3
-2.823529,0,-8.470588,-0.007843,-0.007843,-0.007843,-1.960784,-1.960784,-1.960784,3
-2.823529,0,-8.470588,-0.007843,-0.007843,-0.007843,-1.960784,-1.960784,-1.960784,3
-2.823529,0,-8.470588,-0.007843,-0.007843,-0.007843,-1.960784,-1.960784,-1.960784,3
-2.823529,0,-8.470588,-0.007843,-0.007843,-0.007843,-1.960784,-1.960784,-1.960784,3
-2.823529,0,-8.470588,-0.007843,-0.007843,-0.007843,-1.960784,-1.960784,-1.960784,3
-2.823529,0,-8.470588,-0.007843,-0.007843,-0.007843,-1.960784,-1.960784,-1.960784,3
-2.823529,0,-8.470588,-0.007843,-0.007843,-0.007843,-1.960784,-1.960784,-1.960784,3
-2.823529,0,-8.470588,-0.007843,-0.007843,-0.007843,-1.960784,-1.960784,-1.960784,3
-2.823529,0,-8.470588,-0.007843,-0.007843,-0.023529,-1.960784,-1.960784,-1.960784,3
-2.823529,0,-8.470588,-0.007843,-0.007843,-0.007843,-1.960784,-1.960784,-1.960784,3
-2.823529,0,-8.470588,-0.007843,-0.007843,-0.007843,-1.960784,-1.960784,-1.960784,3
-2.823529,0,-8.470588,-0.007843,-0.007843,-0.007843,-1.960784,-1.960784,-1.960784,3
-2.823529,0,-8.470588,-0.007843,-0.007843,-0.007843,-1.960784,-1.960784,-1.960784,3
-2.823529,0,-8.470588,-0.007843,-0.007843,-0.007843,-1.960784,-1.960784,-1.960784,3
-2.823529,0,-8.470588,-0.007843,-0.007843,-0.007843,-1.960784,-1.960784,-1.960784,3
-2.823529,0,-8.470588,-0.007843,-0.007843,-0.007843,-1.960784,-1.960784,-1.960784,3
-2.823529,0,-8.470588,-0.007843,-0.007843,-0.007843,-1.960784,-1.960784,-1.960784,3
-2.823529,0,-8.470588,-0.007843,-0.007843,-0.007843,-1.960784,-1.960784,-1.960784,3
-2.823529,0,-8.470588,-0.007843,-0.007843,-0.007843,-1.960784,-1.960784,-1.960784,3
-2.823529,0,-8.470588,-0.007843,-0.007843,-0.007843,-1.960784,-1.960784,-1.960784,3
-2.823529,0,-8.470588,-0.007843,-0.007843,-0.007843,-1.960784,-1.960784,-1.960784,3
-2.823529,0,-8.470588,-0.007843,-0.007843,-0.007843,-1.960784,-1.960784,-1.960784,3
-2.823529,0,-8.470588,-0.007843,-0.007843,-0.007843,-1.960784,-1.960784,-1.960784,3
-2.823529,0,-8.470588,-0.007843,-0.007843,-0.007843,-1.960784,-1.960784,-1.960784,3
-2.823529,0,-8.470588,-0.007843,-0.007843,-0.007843,-1.960784,-1.960784,-1.960784,3
-2.823529,0,-8.470588,-0.007843,-0.007843,-0.007843,-1.960784,-1.960784,-1.960784,3
-2.823529,0,-8.470588,-0.007843,-0.007843,-0.007843,-1.960784,-1.960784,-1.960784,3
-2.823529,0,-8.470588,-0.007843,-0.007843,-0.007843,-1.960784,-1.960784,-1.960784,3
-2.823529,0,-8.470588,-0.007843,-0.007843,-0.023529,-1.960784,-1.960784,-1.960784,3
-2.823529,0,-8.470588,-0.007843,-0.007843,0.007843,-1.960784,-1.960784,-1.960784,3
-2.823529,0,-8.470588,-0.007843,-0.007843,-0.007843,-1.960784,-1.960784,-1.960784,3
-2.823529,0,-8.470588,-0.007843,-0.007843,-0.007843,-1.960784,-1.960784,-1.960784,3
-2.823529,0,-8.470588,-0.007843,-0.007843,-0.007843,-1.960784,-1.960784,-1.960784,3
-2.823529,0,-8.470588,-0.007843,-0.007843,-0.007843,-1.960784,-1.960784,-1.960784,3
-2.823529,0,-8.470588,-0.007843,-0.007843,-0.007843,-1.960784,-1.960784,-1.960784,3
-2.823529,0,-8.470588,-0.007843,-0.007843,-0.007843,-1.960784,-1.960784,-1.960784,3
-2.823529,0,-8.470588,-0.007843,-0.007843,-0.007843,-1.960784,-1.960784,-1.960784,3
-2.823529,0,-8.470588,-0.007843,-0.007843,-0.007843,-1.960784,-1.960784,-1.960784,3
-2.823529,0,-8.470588,-0.007843,-0.007843,-0.007843,-1.960784,-1.960784,-1.960784,3
-2.823529,0,-8.470588,-0.007843,-0.007843,-0.007843,-1.960784,-1.960784,-1.960784,3
-2.823529,0,-8.470588,-0.007843,-0.007843,-0.007843,-1.960784,-1.960784,-1.960784,3
-2.823529,0,-8.470588,-0.007843,-0.007843,-0.007843,-1.960784,-1.960784,-1.960784,3
-2.823529,0,-8.470588,-0.007843,-0.007843,-0.007843,-1.960784,-1.960784,-1.960784,3
-2.823529,0,-8.470588,-0.007843,-0.007843,-0.007843,-1.960784,-1.960784,-1.960784,3
-2.823529,0,-8.470588,-0.007843,-0.007843,-0.007843,-1.960784,-1.960784,-1.960784,3
-2.823529,0,-8.470588,-0.007843,-0.007843,-0.007843,-1.960784,-1.960784,-1.960784,3
-2.823529,0,-8.470588,-0.007843,-0.007843,-0.007843,-1.960784,-1.960784,-1.960784,3
-2.823529,0,-8.470588,-0.007843,-0.007843,-0.007843,-1.960784,-1.960784,-1.960784,3
-2.823529,0,-8.470588,-0.007843,-0.007843,-0.007843,-1.960784,-1.960784,-1.960784,3
-2.823529,0,-8.470588,-0.007843,-0.007843,-0.007843,-1.960784,-1.960784,-1.960784,3
-2.823529,0,-8.470588,-0.007843,-0.007843,-0.007843,-1.960784,-1.960784,-1.960784,3
-2.823529,0,-8.470588,-0.007843,-0.007843,-0.007843,-1.960784,-1.960784,-1.960784,3
-2.823529,0,-8.470588,-0.007843,-0.007843,-0.007843,-1.960784,-1.960784,-1.960784,3
-2.823529,0,-8.470588,-0.007843,-0.007843,-0.007843,-1.960784,-1.960784,-1.960784,3
-2.823529,0,-8.470588,-0.007843,-0.007843,-0.007843,-1.960784,-1.960784,-1.960784,3
-2.823529,0,-8.470588,-0.007843,-0.007843,-0.007843,-1.960784,-1.960784,-1.960784,3
-2.823529,0,-8.470588,-0.007843,-0.007843,-0.007843,-1.960784,-1.960784,-1.960784,3
-2.823529,0,-8.470588,-0.007843,-0.007843,-0.007843,-1.960784,-1.960784,-1.960784,3
-2.823529,0,-8.470588,-0.007843,-0.007843,-0.007843,-1.960784,-1.960784,-1.960784,3
-2.823529,0,-8.470588,-0.007843,-0.007843,-0.007843,-1.960784,-1.960784,-1.960784,3
-2.823529,0,-8.470588,-0.007843,-0.007843,-0.023529,-1.960784,-1.960784,-1.960784,3
-2.823529,0,-8.470588,-0.007843,-0.007843,-0.007843,-1.960784,-1.960784,-1.960784,3
-2.823529,0,-8.470588,-0.007843,-0.007843,-0.007843,-1.960784,-1.960784,-1.960784,3
-2.823529,0,-8.470588,-0.007843,-0.007843,0.007843,-1.960784,-1.960784,-1.960784,3
-2.823529,0,-8.470588,-0.023529,-0.023529,0.054902,-1.960784,-1.960784,-1.960784,3
-2.823529,0,-8.470588,-0.007843,-0.007843,-0.007843,-1.960784,-1.960784,-1.960784,3
-2.823529,0,-8.470588,-0.007843,-0.007843,-0.023529,-1.960784,-1.960784,-1.960784,3
-2.823529,0,-8.470588,-0.007843,-0.007843,-0.007843,-1.960784,-1.960784,-1.960784,3
-2.823529,0,-8.470588,-0.007843,-0.007843,-0.023529,-1.960784,-1.960784,-1.960784,3
-2.823529,0,-8.470588,-0.007843,-0.007843,-0.007843,-1.960784,-1.960784,-1.960784,3
-2.823529,0,-8.470588,-0.007843,-0.007843,-0.007843,-1.960784,-1.960784,-1.960784,3
-2.823529,0,-8.470588,-0.007843,-0.007843,-0.007843,-1.960784,-1.960784,-1.960784,3
-2.823529,0,-8.470588,-0.007843,-0.007843,-0.007843,-1.960784,-1.960784,-1.960784,3
-2.823529,0,-8.470588,-0.007843,-0.007843,0.007843,-1.960784,-1.960784,-1.960784,3
-2.823529,0,-8.470588,-0.007843,-0.007843,-0.007843,-1.960784,-1.960784,-1.960784,3
-2.823529,0,-8.470588,-0.007843,-0.007843,-0.007843,-1.960784,-1.960784,-1.960784,3
-2.823529,0,-8.470588,-0.007843,-0.007843,-0.007843,-1.960784,-1.960784,-1.960784,3
-2.823529,0,-8.470588,0.007843,-0.023529,0.007843,-1.960784,-1.960784,-1.960784,3
-2.823529,0,-8.470588,-0.007843,-0.023529,-0.023529,-1.960784,-1.960784,-1.960784,3
-2.823529,0,-8.470588,-0.007843,-0.007843,-0.007843,-1.960784,-1.960784,-1.960784,3
-2.823529,0,-8.470588,-0.007843,-0.007843,-0.007843,-1.960784,-1.960784,-1.960784,3
-2.823529,0,-8.470588,0.007843,-0.007843,-0.007843,-1.960784,-1.960784,-1.960784,3
-2.823529,0,-8.470588,-0.007843,-0.007843,-0.023529,-1.960784,-1.960784,-1.960784,3
-2.823529,0,-8.470588,-0.007843,-0.007843,0.007843,-1.960784,-1.960784,-1.960784,3
-2.823529,0,-8.470588,-0.007843,-0.007843,-0.007843,-1.960784,-1.960784,-1.960784,3
-2.823529,0,-8.470588,-0.007843,-0.007843,-0.007843,-1.960784,-1.960784,-1.960784,3
-2.823529,0,-8.470588,-0.007843,-0.007843,-0.007843,-1.960784,-1.960784,-1.960784,3
-2.823529,0,-8.470588,-0.007843,-0.007843,-0.007843,-1.960784,-1.960784,-1.960784,3
-2.823529,0,-8.470588,-0.007843,-0.007843,-0.007843,-1.960784,-1.960784,-1.960784,3
-2.823529,0,-8.470588,-0.007843,-0.007843,-0.007843,-1.960784,-1.960784,-1.960784,3
-2.823529,0,-8.470588,-0.007843,-0.007843,-0.007843,-1.960784,-1.960784,-1.960784,3
-2.823529,0,-8.470588,-0.007843,-0.007843,-0.007843,-1.960784,-1.960784,-1.960784,3
-2.823529,0,-8.470588,-0.007843,-0.007843,-0.007843,-1.960784,-1.960784,-1.960784,3
-2.823529,0,-8.470588,-0.007843,-0.007843,-0.007843,-1.960784,-1.960784,-1.960784,3
-2.823529,0,-8.470588,0.007843,-0.007843,-0.023529,-1.960784,-1.960784,-1.960784,3
-2.823529,0,-8.470588,-0.007843,-0.007843,-0.007843,-1.960784,-1.960784,-1.960784,3
-2.823529,0,-8.470588,-0.007843,-0.007843,-0.007843,-1.960784,-1.960784,-1.960784,3
-2.823529,0,-8.470588,-0.007843,-0.007843,-0.007843,-1.960784,-1.960784,-1.960784,3
-2.823529,0,-8.470588,-0.007843,-0.007843,-0.007843,-1.960784,-1.960784,-1.960784,3
-2.823529,0,-8.470588,-0.007843,-0.007843,-0.007843,-1.960784,-1.960784,-1.960784,3
-2.823529,0,-8.470588,-0.007843,-0.007843,-0.007843,-1.960784,-1.960784,-1.960784,3
-2.823529,0,-8.470588,-0.007843,-0.007843,-0.007843,-1.960784,-1.960784,-1.960784,3
-2.823529,0,-8.470588,-0.007843,-0.007843,-0.007843,-1.960784,-1.960784,-1.960784,3
0,0,-8.470588,-0.007843,-0.007843,-0.023529,-1.960784,-1.960784,-1.960784,3
0,0,-8.470588,-0.007843,-0.007843,-0.007843,-1.960784,-1.960784,-1.960784,3
0,0,-8.470588,-0.007843,-0.007843,0.007843,-1.960784,-1.960784,-1.960784,3
0,0,-8.470588,-0.007843,-0.007843,-0.007843,-1.960784,-1.960784,-1.960784,3
0,0,-8.470588,0.007843,-0.007843,-0.007843,-1.960784,-1.960784,-1.960784,3
0,0,-8.470588,-0.007843,-0.007843,0.007843,-1.960784,-1.960784,-1.960784,3
0,0,-8.470588,-0.007843,-0.007843,-0.007843,-1.960784,-1.960784,-1.960784,3
0,0,-8.470588,-0.007843,-0.007843,-0.007843,-1.960784,-1.960784,-1.960784,3
0,0,-8.470588,-0.007843,-0.023529,-0.007843,-1.960784,-1.960784,-1.960784,3
0,0,-8.470588,-0.007843,-0.007843,-0.007843,-1.960784,-1.960784,-1.960784,3
0,0,-8.470588,-0.007843,-0.007843,-0.007843,-1.960784,-1.960784,-1.960784,3
0,0,-8.470588,-0.007843,-0.007843,-0.007843,-1.960784,-1.960784,-1.960784,3
0,0,-8.470588,-0.007843,-0.007843,-0.023529,-1.960784,-1.960784,-1.960784,3
0,0,-8.470588,-0.007843,-0.007843,-0.023529,-1.960784,-1.960784,-1.960784,3
0,0,-8.470588,-0.007843,-0.007843,-0.007843,-1.960784,-1.960784,-1.960784,3
0,0,-8.470588,-0.007843,-0.007843,-0.007843,-1.960784,-1.960784,-1.960784,3
0,0,-8.470588,-0.007843,-0.007843,-0.007843,-1.960784,-1.960784,-1.960784,3
0,0,-8.470588,-0.007843,-0.007843,-0.007843,-1.960784,-1.960784,-1.960784,3
-2.823529,0,-8.470588,-0.007843,-0.007843,-0.007843,-1.960784,-1.960784,-1.960784,3
0,0,-8.470588,-0.007843,-0.007843,-0.007843,-1.960784,-1.960784,-1.960784,3
0,0,-8.470588,-0.007843,-0.007843,-0.007843,-1.960784,-1.960784,-1.960784,3
0,0,-8.470588,-0.007843,-0.007843,-0.007843,-1.960784,-1.960784,-1.960784,3
0,0,-8.470588,-0.007843,-0.007843,-0.023529,-1.960784,-1.960784,-1.960784,3
0,0,-8.470588,-0.007843,-0.007843,-0.007843,-1.960784,-1.960784,-1.960784,3
0,0,-8.470588,-0.007843,-0.007843,-0.007843,-1.960784,-1.960784,-1.960784,3
0,0,-8.470588,-0.007843,-0.007843,-0.007843,-1.960784,-1.960784,-1.960784,3
0,0,-8.470588,-0.007843,-0.007843,-0.007843,-1.960784,-1.960784,-1.960784,3
0,0,-8.470588,-0.007843,-0.007843,-0.007843,-1.960784,-1.960784,-1.960784,3
0,0,-8.470588,-0.007843,-0.007843,-0.007843,-1.960784,-1.960784,-1.960784,3
0,0,-8.470588,-0.007843,-0.007843,-0.023529,-1.960784,-1.960784,-1.960784,3
0,0,-8.470588,-0.007843,-0.007843,-0.007843,-1.960784,-1.960784,-1.960784,3
0,0,-8.470588,-0.007843,-0.007843,-0.007843,-1.960784,-1.960784,-1.960784,3
0,0,-8.470588,-0.007843,-0.007843,-0.007843,-1.960784,-1.960784,-1.960784,3
0,0,-8.470588,-0.007843,-0.007843,-0.007843,-1.960784,-1.960784,-1.960784,3
0,0,-8.470588,-0.007843,-0.007843,-0.007843,-1.960784,-1.960784,-1.960784,3
0,0,-8.470588,-0.007843,-0.007843,-0.007843,-1.960784,-1.960784,-1.960784,3
0,0,-8.470588,-0.007843,-0.007843,-0.007843,-1.960784,-1.960784,-1.960784,3
0,0,-8.470588,-0.007843,-0.007843,-0.007843,-1.960784,-1.960784,-1.960784,3
0,0,-8.470588,-0.007843,-0.007843,-0.007843,-1.960784,-1.960784,-1.960784,3
0,0,-8.470588,-0.007843,-0.007843,-0.007843,-1.960784,-1.960784,-1.960784,3
0,0,-8.470588,-0.007843,-0.007843,-0.007843,-1.960784,-1.960784,-1.960784,3
0,0,-8.470588,-0.007843,-0.007843,-0.007843,-1.960784,-1.960784,-1.960784,3
0,0,-8.470588,-0.007843,-0.007843,-0.007843,-1.960784,-1.960784,-1.960784,3
0,0,-8.470588,-0.007843,-0.007843,-0.007843,-1.960784,-1.960784,-1.960784,3
0,0,-8.470588,-0.007843,-0.007843,-0.007843,-1.960784,-1.960784,-1.960784,3
0,0,-8.470588,-0.007843,-0.007843,-0.007843,-1.960784,-1.960784,-1.960784,3
0,0,-8.470588,-0.007843,-0.007843,-0.007843,-1.960784,-1.960784,-1.960784,3
0,0,-8.470588,-0.007843,-0.007843,-0.007843,-1.960784,-1.960784,-1.960784,3
0,0,-8.470588,-0.007843,-0.007843,-0.007843,-1.960784,-1.960784,-1.960784,3
0,0,-8.470588,-0.007843,-0.007843,-0.007843,-1.960784,-1.960784,-1.960784,3
0,0,-8.470588,-0.007843,-0.007843,-0.007843,-1.960784,-1.960784,-1.960784,3
0,0,-8.470588,-0.007843,-0.007843,-0.007843,-1.960784,-1.960784,-1.960784,3
0,0,-8.470588,-0.007843,-0.007843,-0.007843,-1.960784,-1.960784,-1.960784,3
0,0,-8.470588,-0.007843,-0.007843,-0.023529,-1.960784,-1.960784,-1.960784,3
0,0,-8.470588,-0.023529,-0.007843,-0.007843,-1.960784,-1.960784,-1.960784,3
0,0,-8.470588,-0.007843,-0.007843,-0.007843,-1.960784,-1.960784,-1.960784,3
0,0,-8.470588,-0.007843,-0.007843,-0.007843,-1.960784,-1.960784,-1.960784,3
0,0,-8.470588,-0.007843,-0.007843,-0.007843,-1.960784,-1.960784,-1.960784,3
0,0,-8.470588,-0.007843,-0.007843,-0.007843,-1.960784,-1.960784,-1.960784,3
0,0,-8.470588,-0.007843,-0.007843,-0.007843,-1.960784,-1.960784,-1.960784,3
0,0,-8.470588,-0.007843,-0.007843,-0.007843,-1.960784,-1.960784,-1.960784,3
0,0,-8.470588,-0.007843,-0.007843,-0.007843,-1.960784,-1.960784,-1.960784,3
0,0,-8.470588,-0.007843,-0.007843,-0.007843,-1.960784,-1.960784,-1.960784,3
0,0,-8.470588,-0.007843,-0.007843,-0.007843,-1.960784,-1.960784,-1.960784,3
0,0,-8.470588,-0.007843,-0.007843,-0.007843,-1.960784,-1.960784,-1.960784,3
0,0,-8.470588,-0.007843,-0.007843,-0.023529,-1.960784,-1.960784,-1.960784,3
0,0,-8.470588,-0.007843,-0.007843,-0.007843,-1.960784,-1.960784,-1.960784,3
0,0,-8.470588,-0.007843,-0.007843,-0.007843,-1.960784,-1.960784,-1.960784,3
0,0,-8.470588,-0.007843,-0.007843,-0.007843,-1.960784,-1.960784,-1.960784,3
0,0,-8.470588,-0.007843,-0.007843,-0.007843,-1.960784,-1.960784,-1.960784,3
0,0,-8.470588,-0.007843,-0.007843,-0.007843,-1.960784,-1.960784,-1.960784,3
0,0,-8.470588,-0.007843,-0.007843,-0.007843,-1.960784,-1.960784,-1.960784,3
0,0,-8.470588,-0.007843,-0.007843,-0.007843,-1.960784,-1.960784,-1.960784,3
0,0,-8.470588,-0.007843,-0.007843,-0.023529,-1.960784,-1.960784,-1.960784,3
0,0,-8.470588,-0.023529,-0.007843,-0.007843,-1.960784,-1.960784,-1.960784,3
0,0,-8.470588,-0.007843,-0.007843,-0.007843,-1.960784,-1.960784,-1.960784,3
0,0,-8.470588,-0.007843,-0.007843,-0.007843,-1.960784,-1.960784,-1.960784,3
0,0,-8.470588,-0.007843,-0.007843,-0.007843,-1.960784,-1.960784,-1.960784,3
0,0,-8.470588,-0.007843,-0.007843,-0.007843,-1.960784,-1.960784,-1.960784,3
0,0,-8.470588,-0.007843,-0.007843,-0.007843,-1.960784,-1.960784,-1.960784,3
0,0,-8.470588,-0.007843,-0.007843,-0.007843,-1.960784,-1.960784,-1.960784,3
0,0,-8.470588,-0.007843,-0.007843,-0.007843,-1.960784,-1.960784,-1.960784,3
0,0,-8.470588,-0.007843,-0.007843,-0.007843,-1.960784,-1.960784,-1.960784,3
0,0,-8.470588,-0.007843,-0.007843,-0.007843,-1.960784,-1.960784,-1.960784,3
0,0,-8.470588,-0.007843,-0.007843,0.007843,-1.960784,-1.960784,-1.960784,3
0,0,-8.470588,-0.007843,-0.007843,-0.007843,-1.960784,-1.960784,-1.960784,3
0,0,-8.470588,-0.007843,-0.007843,-0.007843,-1.960784,-1.960784,-1.960784,3
0,0,-8.470588,-0.007843,-0.007843,-0.007843,-1.960784,-1.960784,-1.960784,3
0,0,-8.470588,-0.007843,-0.007843,-0.007843,-1.960784,-1.960784,-1.960784,3
0,0,-8.470588,-0.007843,-0.007843,-0.023529,-1.960784,-1.960784,-1.960784,3
0,0,-8.470588,-0.007843,-0.007843,-0.007843,-1.960784,-1.960784,-1.960784,3
0,0,-8.470588,-0.007843,-0.007843,-0.007843,-1.960784,-1.960784,-1.960784,3
0,0,-8.470588,-0.007843,-0.007843,-0.007843,-1.960784,-1.960784,-1.960784,3
0,0,-8.470588,-0.007843,-0.007843,-0.007843,-1.960784,-1.960784,-1.960784,3
0,0,-8.470588,-0.007843,-0.007843,-0.007843,-1.960784,-1.960784,-1.960784,3
0,0,-8.470588,-0.007843,-0.007843,-0.007843,-1.960784,-1.960784,-1.960784,3
0,0,-8.470588,-0.007843,-0.007843,-0.007843,-1.960784,-1.960784,-1.960784,3
0,0,-8.470588,-0.007843,-0.007843,-0.007843,-1.960784,-1.960784,-1.960784,3
0,0,-8.470588,-0.007843,-0.007843,-0.007843,-1.960784,-1.960784,-1.960784,3
0,0,-8.470588,-0.007843,-0.007843,-0.007843,-1.960784,-1.960784,-1.960784,3
0,0,-8.470588,-0.007843,-0.007843,-0.023529,-1.960784,-1.960784,-1.960784,3
0,0,-8.470588,-0.007843,-0.007843,-0.007843,-1.960784,-1.960784,-1.960784,3
0,0,-8.470588,-0.007843,-0.007843,-0.007843,-1.960784,-1.960784,-1.960784,3
0,0,-8.470588,-0.007843,-0.007843,-0.007843,-1.960784,-1.960784,-1.960784,3
0,0,-8.470588,-0.007843,-0.007843,-0.007843,-1.960784,-1.960784,-1.960784,3
0,0,-8.470588,-0.007843,-0.007843,-0.007843,-1.960784,-1.960784,-1.960784,3
0,0,-8.470588,-0.007843,-0.007843,-0.007843,-1.960784,-1.960784,-1.960784,3
0,0,-8.470588,-0.007843,-0.007843,-0.007843,-1.960784,-1.960784,-1.960784,3
0,0,-8.470588,-0.007843,-0.007843,-0.007843,-1.960784,-1.960784,-1.960784,3
0,0,-8.470588,-0.007843,-0.007843,-0.007843,-1.960784,-1.960784,-1.960784,3
0,0,-8.470588,-0.007843,-0.007843,-0.007843,-1.960784,-1.960784,-1.960784,3
0,0,-8.470588,-0.007843,-0.007843,-0.007843,-1.960784,-1.960784,-1.960784,3
0,0,-8.470588,-0.007843,-0.007843,-0.007843,-1.960784,-1.960784,-1.960784,3
0,0,-8.470588,-0.007843,-0.007843,-0.007843,-1.960784,-1.960784,-1.960784,3
-2.823529,0,-8.470588,-0.007843,-0.007843,-0.007843,-1.960784,-1.960784,-1.960784,3
0,0,-8.470588,-0.007843,-0.007843,-0.007843,-1.960784,-1.960784,-1.960784,3
0,0,-8.470588,-0.007843,-0.007843,-0.007843,-1.960784,-1.960784,-1.960784,3
0,0,-8.470588,-0.007843,-0.007843,-0.007843,-1.960784,-1.960784,-1.960784,3
0,0,-8.470588,-0.007843,-0.007843,-0.007843,-1.960784,-1.960784,-1.960784,3
0,0,-8.470588,-0.007843,-0.007843,-0.007843,-1.960784,-1.960784,-1.960784,3
0,0,-8.470588,-0.007843,-0.007843,-0.007843,-1.960784,-1.960784,-1.960784,3
0,0,-8.470588,-0.007843,-0.007843,-0.007843,-1.960784,-1.960784,-1.960784,3
0,0,-8.470588,-0.007843,-0.007843,-0.007843,-1.960784,-1.960784,-1.960784,3
0,0,-8.470588,-0.007843,-0.007843,-0.007843,-1.960784,-1.960784,-1.960784,3
0,0,-8.470588,-0.007843,-0.007843,-0.007843,-1.960784,-1.960784,-1.960784,3
0,0,-8.470588,-0.007843,-0.007843,-0.023529,-1.960784,-1.960784,-1.960784,3
0,0,-8.470588,-0.007843,-0.007843,-0.007843,-1.960784,-1.960784,-1.960784,3
0,0,-8.470588,-0.007843,-0.007843,-0.007843,-1.960784,-1.960784,-1.960784,3
0,0,-8.470588,-0.007843,-0.007843,-0.007843,-1.960784,-1.960784,-1.960784,3
0,0,-8.470588,-0.007843,-0.007843,-0.007843,-1.960784,-1.960784,-1.960784,3
0,0,-8.470588,-0.007843,-0.007843,-0.023529,-1.960784,-1.960784,-1.960784,3
0,0,-8.470588,-0.007843,-0.007843,0.007843,-1.960784,-1.960784,-1.960784,3
0,0,-8.470588,-0.007843,-0.007843,-0.023529,-1.960784,-1.960784,-1.960784,3
0,0,-8.470588,-0.007843,-0.007843,-0.007843,-1.960784,-1.960784,-1.960784,3
0,0,-8.470588,-0.007843,-0.007843,-0.007843,-1.960784,-1.960784,-1.960784,3
0,0,-8.470588,-0.007843,-0.007843,-0.007843,-1.960784,-1.960784,-1.960784,3
0,0,-8.470588,-0.007843,-0.007843,-0.007843,-1.960784,-1.960784,-1.960784,3
0,0,-8.470588,-0.007843,-0.007843,-0.007843,-1.960784,-1.960784,-1.960784,3
0,0,-8.470588,-0.007843,-0.007843,-0.007843,-1.960784,-1.960784,-1.960784,3
0,0,-8.470588,-0.007843,-0.007843,-0.007843,-1.960784,-1.960784,-1.960784,3
0,0,-8.470588,-0.007843,-0.007843,-0.007843,-1.960784,-1.960784,-1.960784,3
0,0,-8.470588,-0.007843,-0.007843,-0.007843,-1.960784,-1.960784,-1.960784,3
0,0,-8.470588,-0.007843,-0.007843,-0.007843,-1.960784,-1.960784,-1.960784,3
0,0,-8.470588,-0.007843,-0.007843,-0.007843,-1.960784,-1.960784,-1.960784,3
0,0,-8.470588,-0.007843,-0.007843,-0.007843,-1.960784,-1.960784,-1.960784,3
0,0,-8.470588,-0.007843,-0.007843,-0.007843,-1.960784,-1.960784,-1.960784,3
0,0,-8.470588,-0.007843,-0.007843,-0.007843,-1.960784,-1.960784,-1.960784,3
0,0,-8.470588,-0.007843,-0.007843,-0.007843,-1.960784,-1.960784,-1.960784,3
0,0,-8.470588,-0.007843,-0.007843,-0.007843,-1.960784,-1.960784,-1.960784,3
0,0,-8.470588,-0.007843,-0.007843,-0.007843,-1.960784,-1.960784,-1.960784,3
0,0,-8.470588,-0.007843,-0.007843,-0.007843,-1.960784,-1.960784,-1.960784,3
0,0,-8.470588,-0.007843,-0.007843,-0.007843,-1.960784,-1.960784,-1.960784,3
0,0,-8.470588,-0.007843,-0.007843,-0.007843,-1.960784,-1.960784,-1.960784,3
0,0,-8.470588,-0.007843,-0.007843,-0.007843,-1.960784,-1.960784,-1.960784,3
0,0,-8.470588,-0.007843,-0.007843,-0.007843,-1.960784,-1.960784,-1.960784,3
0,0,-8.470588,-0.007843,-0.007843,-0.007843,-1.960784,-1.960784,-1.960784,3
0,0,-8.470588,-0.007843,-0.007843,-0.007843,-1.960784,-1.960784,-1.960784,3
0,0,-8.470588,-0.007843,-0.007843,-0.007843,-1.960784,-1.960784,-1.960784,3
0,0,-8.470588,-0.007843,-0.007843,-0.007843,-1.960784,-1.960784,-1.960784,3
0,0,-8.470588,-0.007843,-0.007843,-0.007843,-1.960784,-1.960784,-1.960784,3
0,0,-8.470588,-0.007843,-0.007843,-0.007843,-1.960784,-1.960784,-1.960784,3
0,0,-8.470588,-0.007843,-0.007843,0.007843,-1.960784,-1.960784,-1.960784,3
0,0,-8.470588,-0.007843,-0.007843,-0.007843,-1.960784,-1.960784,-1.960784,3
0,0,-8.470588,-0.007843,-0.007843,-0.007843,-1.960784,-1.960784,-1.960784,3
0,0,-8.470588,-0.007843,-0.007843,-0.007843,-1.960784,-1.960784,-1.960784,3
0,0,-8.470588,-0.007843,-0.007843,-0.007843,-1.960784,-1.960784,-1.960784,3
0,0,-8.470588,-0.007843,-0.007843,-0.007843,-1.960784,-1.960784,-1.960784,3
0,0,-8.470588,-0.007843,-0.007843,-0.007843,-1.960784,-1.960784,-1.960784,3
0,0,-8.470588,-0.007843,-0.007843,-0.007843,-1.960784,-1.960784,-1.960784,3
0,0,-8.470588,-0.007843,-0.007843,-0.007843,-1.960784,-1.960784,-1.960784,3
0,0,-8.470588,-0.007843,-0.007843,-0.007843,-1.960784,-1.960784,-1.960784,3
0,0,-8.470588,-0.007843,-0.007843,-0.007843,-1.960784,-1.960784,-1.960784,3
0,0,-8.470588,-0.007843,-0.007843,-0.007843,-1.960784,-1.960784,-1.960784,3
0,0,-8.470588,-0.007843,-0.007843,-0.007843,-1.960784,-1.960784,-1.960784,3
0,0,-8.470588,-0.007843,-0.007843,-0.007843,-1.960784,-1.960784,-1.960784,3
0,0,-8.470588,-0.007843,-0.007843,-0.007843,-1.960784,-1.960784,-1.960784,3
0,0,-8.470588,-0.007843,-0.007843,-0.007843,-1.960784,-1.960784,-1.960784,3
-2.823529,0,-8.470588,-0.007843,-0.007843,-0.023529,-1.960784,-1.960784,-1.960784,3
0,0,-8.470588,-0.007843,-0.007843,-0.007843,-1.960784,-1.960784,-1.960784,3
0,0,-8.470588,-0.007843,-0.007843,-0.007843,-1.960784,-1.960784,-1.960784,3
0,0,-8.470588,-0.007843,-0.007843,-0.007843,-1.960784,-1.960784,-1.960784,3
0,0,-8.470588,-0.007843,-0.007843,-0.007843,-1.960784,-1.960784,-1.960784,3
0,0,-8.470588,-0.007843,-0.007843,-0.007843,-1.960784,-1.960784,-1.960784,3
0,0,-8.470588,-0.007843,-0.007843,-0.023529,-1.960784,-1.960784,-1.960784,3
0,0,-8.470588,-0.007843,-0.007843,-0.007843,-1.960784,-1.960784,-1.960784,3
0,0,-8.470588,-0.007843,-0.007843,-0.007843,-1.960784,-1.960784,-1.960784,3
0,0,-8.470588,-0.007843,-0.007843,-0.007843,-1.960784,-1.960784,-1.960784,3
0,0,-8.470588,-0.007843,-0.007843,-0.007843,-1.960784,-1.960784,-1.960784,3
0,0,-8.470588,-0.007843,-0.007843,-0.007843,-1.960784,-1.960784,-1.960784,3
0,0,-8.470588,-0.007843,-0.007843,-0.007843,-1.960784,-1.960784,-1.960784,3
0,0,-8.470588,-0.007843,-0.007843,-0.007843,-1.960784,-1.960784,-1.960784,3
0,0,-8.470588,-0.007843,-0.007843,-0.007843,-1.960784,-1.960784,-1.960784,3
0,0,-8.470588,-0.007843,-0.007843,-0.007843,-1.960784,-1.960784,-1.960784,3
0,0,-8.470588,-0.007843,-0.007843,-0.007843,-1.960784,-1.960784,-1.960784,3
0,0,-8.470588,-0.007843,-0.007843,-0.007843,-1.960784,-1.960784,-1.960784,3
0,0,-8.470588,-0.007843,-0.007843,-0.007843,-1.960784,-1.960784,-1.960784,3
0,0,-8.470588,-0.007843,-0.007843,-0.007843,-1.960784,-1.960784,-1.960784,3
0,0,-8.470588,-0.007843,-0.007843,-0.007843,-1.960784,-1.960784,-1.960784,3
0,0,-8.470588,-0.007843,-0.007843,-0.007843,-1.960784,-1.960784,-1.960784,3
0,0,-8.470588,-0.007843,-0.007843,-0.007843,-1.960784,-1.960784,-1.960784,3
0,0,-8.470588,-0.007843,-0.007843,-0.007843,-1.960784,-1.960784,-1.960784,3
0,0,-8.470588,-0.007843,-0.007843,-0.007843,-1.960784,-1.960784,-1.960784,3
0,0,-8.470588,-0.007843,-0.007843,-0.007843,-1.960784,-1.960784,-1.960784,3
0,0,-8.470588,-0.007843,-0.007843,-0.007843,-1.960784,-1.960784,-1.960784,3
0,0,-8.470588,-0.007843,-0.007843,-0.007843,-1.960784,-1.960784,-1.960784,3
0,0,-8.470588,-0.007843,-0.007843,-0.007843,-1.960784,-1.960784,-1.960784,3
0,0,-8.470588,-0.007843,-0.007843,-0.007843,-1.960784,-1.960784,-1.960784,3
0,0,-8.470588,-0.007843,-0.007843,-0.007843,-1.960784,-1.960784,-1.960784,3
0,0,-8.470588,-0.007843,-0.007843,-0.007843,-1.960784,-1.960784,-1.960784,3
0,0,-8.470588,-0.007843,-0.007843,-0.007843,-1.960784,-1.960784,-1.960784,3
0,0,-8.470588,-0.007843,-0.007843,-0.007843,-1.960784,-1.960784,-1.960784,3
0,0,-8.470588,-0.007843,-0.007843,-0.007843,-1.960784,-1.960784,-1.960784,3
0,0,-8.470588,-0.007843,-0.007843,-0.007843,-1.960784,-1.960784,-1.960784,3
0,0,-8.470588,-0.007843,-0.007843,-0.007843,-1.960784,-1.960784,-1.960784,3
0,0,-8.470588,-0.007843,-0.007843,-0.007843,-1.960784,-1.960784,-1.960784,3
0,0,-8.470588,-0.007843,-0.007843,-0.007843,-1.960784,-1.960784,-1.960784,3
0,0,-8.470588,-0.007843,-0.007843,-0.007843,-1.960784,-1.960784,-1.960784,3
0,0,-8.470588,-0.007843,-0.007843,-0.007843,-1.960784,-1.960784,-1.960784,3
0,0,-8.470588,-0.007843,-0.007843,-0.007843,-1.960784,-1.960784,-1.960784,3
0,0,-8.470588,-0.007843,-0.007843,-0.007843,-1.960784,-1.960784,-1.960784,3
0,0,-8.470588,-0.007843,-0.007843,-0.007843,-1.960784,-1.960784,-1.960784,3
0,0,-8.470588,-0.007843,-0.007843,-0.007843,-1.960784,-1.960784,-1.960784,3
0,0,-8.470588,-0.007843,-0.007843,-0.007843,-1.960784,-1.960784,-1.960784,3
0,0,-8.470588,-0.007843,-0.007843,-0.007843,-1.960784,-1.960784,-1.960784,3
0,0,-8.470588,-0.007843,-0.007843,-0.007843,-1.960784,-1.960784,-1.960784,3
0,0,-8.470588,-0.007843,-0.007843,-0.007843,-1.960784,-1.960784,-1.960784,3
0,0,-8.470588,-0.007843,-0.007843,-0.007843,-1.960784,-1.960784,-1.960784,3
0,0,-8.470588,-0.007843,-0.007843,-0.007843,-1.960784,-1.960784,-1.960784,3
0,0,-8.470588,-0.007843,-0.007843,-0.007843,-1.960784,-1.960784,-1.960784,3
0,0,-8.470588,-0.007843,-0.007843,-0.007843,-1.960784,-1.960784,-1.960784,3
0,0,-8.470588,-0.007843,-0.007843,-0.007843,-1.960784,-1.960784,-1.960784,3
0,0,-8.470588,-0.007843,-0.007843,-0.007843,-1.960784,-1.960784,-1.960784,3
0,0,-8.470588,-0.007843,-0.007843,-0.007843,-1.960784,-1.960784,-1.960784,3
0,0,-8.470588,-0.007843,-0.007843,-0.007843,-1.960784,-1.960784,-1.960784,3
0,0,-8.470588,-0.007843,-0.007843,-0.007843,-1.960784,-1.960784,-1.960784,3
0,0,-8.470588,-0.007843,-0.007843,-0.007843,-1.960784,-1.960784,-1.960784,3
0,0,-8.470588,-0.007843,-0.007843,-0.007843,-1.960784,-1.960784,-1.960784,3
0,0,-8.470588,-0.007843,-0.007843,-0.007843,-1.960784,-1.960784,-1.960784,3
0,0,-8.470588,-0.007843,-0.007843,-0.007843,-1.960784,-1.960784,-1.960784,3
0,0,-8.470588,-0.007843,-0.007843,-0.007843,-1.960784,-1.960784,-1.960784,3
0,0,-8.470588,-0.007843,-0.007843,-0.007843,-1.960784,-1.960784,-1.960784,3
0,0,-8.470588,-0.007843,-0.007843,-0.007843,-1.960784,-1.960784,-1.960784,3
-2.823529,0,-8.470588,-0.007843,-0.007843,-0.007843,-1.960784,-1.960784,-1.960784,3
0,0,-8.470588,-0.007843,-0.007843,-0.007843,-1.960784,-1.960784,-1.960784,3
-2.823529,0,-8.470588,-0.007843,-0.007843,-0.007843,-1.960784,-1.960784,-1.960784,3
-2.823529,0,-8.470588,-0.007843,-0.007843,-0.007843,-1.960784,-1.960784,-1.960784,3
-2.823529,0,-8.470588,-0.007843,-0.007843,-0.007843,-1.960784,-1.960784,-1.960784,3
0,0,-8.470588,-0.007843,-0.007843,-0.007843,-1.960784,-1.960784,-1.960784,3
0,0,-8.470588,-0.007843,-0.007843,-0.007843,-1.960784,-1.960784,-1.960784,3
0,0,-8.470588,-0.007843,-0.007843,-0.007843,-1.960784,-1.960784,-1.960784,3
0,0,-8.470588,-0.007843,-0.007843,-0.007843,-1.960784,-1.960784,-1.960784,3
0,0,-8.470588,-0.007843,-0.007843,-0.007843,-1.960784,-1.960784,-1.960784,3
0,0,-8.470588,-0.007843,-0.007843,-0.007843,-1.960784,-1.960784,-1.960784,3
0,0,-8.470588,-0.007843,-0.007843,-0.007843,-1.960784,-1.960784,-1.960784,3
0,0,-8.470588,-0.007843,-0.007843,-0.023529,-1.960784,-1.960784,-1.960784,3
0,0,-8.470588,-0.007843,-0.007843,-0.007843,-1.960784,-1.960784,-1.960784,3
0,0,-8.470588,-0.007843,-0.007843,-0.007843,-1.960784,-1.960784,-1.960784,3
0,0,-8.470588,-0.007843,-0.007843,-0.007843,-1.960784,-1.960784,-1.960784,3
0,0,-8.470588,-0.007843,-0.007843,-0.007843,-1.960784,-1.960784,-1.960784,3
0,0,-8.470588,-0.007843,-0.007843,-0.007843,-1.960784,-1.960784,-1.960784,3
0,0,-8.470588,-0.007843,-0.007843,-0.007843,-1.960784,-1.960784,-1.960784,3
0,0,-8.470588,-0.007843,-0.007843,-0.007843,-1.960784,-1.960784,-1.960784,3
0,0,-8.470588,-0.007843,-0.007843,-0.007843,-1.960784,-1.960784,-1.960784,3
0,0,-8.470588,-0.007843,-0.007843,-0.007843,-1.960784,-1.960784,-1.960784,3
0,0,-8.470588,-0.007843,-0.007843,-0.007843,-1.960784,-1.960784,-1.960784,3
0,0,-8.470588,-0.007843,-0.007843,-0.007843,-1.960784,-1.960784,-1.960784,3
0,0,-8.470588,-0.007843,-0.007843,-0.007843,-1.960784,-1.960784,-1.960784,3
0,0,-8.470588,-0.007843,-0.007843,-0.007843,-1.960784,-1.960784,-1.960784,3
0,0,-8.470588,-0.007843,-0.007843,-0.007843,-1.960784,-1.960784,-1.960784,3
0,0,-8.470588,-0.007843,-0.007843,-0.023529,-1.960784,-1.960784,-1.960784,3
0,0,-8.470588,-0.007843,-0.007843,-0.007843,-1.960784,-1.960784,-1.960784,3
0,0,-8.470588,-0.007843,-0.007843,-0.007843,-1.960784,-1.960784,-1.960784,3
0,0,-8.470588,-0.007843,-0.007843,-0.007843,-1.960784,-1.960784,-1.960784,3
0,0,-8.470588,-0.007843,-0.007843,-0.007843,-1.960784,-1.960784,-1.960784,3
0,0,-8.470588,-0.007843,-0.007843,-0.007843,-1.960784,-1.960784,-1.960784,3
0,0,-8.470588,-0.007843,-0.007843,-0.007843,-1.960784,-1.960784,-1.960784,3
0,0,-8.470588,-0.007843,-0.007843,-0.007843,-1.960784,-1.960784,-1.960784,3
0,0,-8.470588,-0.007843,-0.007843,-0.007843,-1.960784,-1.960784,-1.960784,3
0,0,-8.470588,-0.007843,-0.007843,-0.007843,-1.960784,-1.960784,-1.960784,3
0,0,-8.470588,-0.007843,-0.007843,-0.007843,-1.960784,-1.960784,-1.960784,3
0,0,-8.470588,-0.007843,-0.007843,-0.007843,-1.960784,-1.960784,-1.960784,3
0,0,-8.470588,-0.007843,-0.007843,-0.007843,-1.960784,-1.960784,-1.960784,3
0,0,-8.470588,-0.007843,-0.007843,-0.007843,-1.960784,-1.960784,-1.960784,3
0,0,-8.470588,-0.007843,-0.007843,-0.007843,-1.960784,-1.960784,-1.960784,3
0,0,-8.470588,-0.007843,-0.007843,-0.007843,-1.960784,-1.960784,-1.960784,3
0,0,-8.470588,-0.007843,-0.007843,-0.007843,-1.960784,-1.960784,-1.960784,3
0,0,-8.470588,-0.007843,-0.007843,-0.007843,-1.960784,-1.960784,-1.960784,3
0,0,-8.470588,-0.007843,-0.007843,-0.007843,-1.960784,-1.960784,-1.960784,3
0,0,-8.470588,-0.007843,-0.007843,-0.007843,-1.960784,-1.960784,-1.960784,3
0,0,-8.470588,-0.007843,-0.007843,-0.007843,-1.960784,-1.960784,-1.960784,3
0,0,-8.470588,-0.007843,-0.007843,-0.007843,-1.960784,-1.960784,-1.960784,3
0,0,-8.470588,-0.007843,-0.007843,-0.007843,-1.960784,-1.960784,-1.960784,3
0,0,-8.470588,-0.007843,-0.007843,-0.007843,-1.960784,-1.960784,-1.960784,3
0,0,-8.470588,-0.007843,-0.007843,-0.023529,-1.960784,-1.960784,-1.960784,3
0,0,-8.470588,-0.007843,-0.007843,-0.007843,-1.960784,-1.960784,-1.960784,3
0,0,-8.470588,-0.007843,-0.007843,-0.007843,-1.960784,-1.960784,-1.960784,3
0,0,-8.470588,-0.007843,-0.007843,-0.007843,-1.960784,-1.960784,-1.960784,3
0,0,-8.470588,-0.007843,-0.007843,-0.007843,-1.960784,-1.960784,-1.960784,3
0,0,-8.470588,-0.007843,-0.007843,-0.007843,-1.960784,-1.960784,-1.960784,3
0,0,-8.470588,-0.007843,-0.007843,-0.007843,-1.960784,-1.960784,-1.960784,3
0,0,-8.470588,-0.007843,-0.007843,-0.007843,-1.960784,-1.960784,-1.960784,3
0,0,-8.470588,-0.007843,-0.007843,-0.007843,-1.960784,-1.960784,-1.960784,3
0,0,-8.470588,-0.007843,-0.007843,-0.007843,-1.960784,-1.960784,-1.960784,3
0,0,-8.470588,-0.007843,-0.007843,-0.007843,-1.960784,-1.960784,-1.960784,3
0,0,-8.470588,-0.007843,-0.007843,-0.007843,-1.960784,-1.960784,-1.960784,3
0,0,-8.470588,-0.007843,-0.007843,-0.007843,-1.960784,-1.960784,-1.960784,3
0,0,-8.470588,-0.007843,-0.007843,-0.007843,-1.960784,-1.960784,-1.960784,3
0,0,-8.470588,-0.007843,-0.007843,-0.007843,-1.960784,-1.960784,-1.960784,3
0,0,-8.470588,-0.007843,-0.007843,-0.007843,-1.960784,-1.960784,-1.960784,3
0,0,-8.470588,-0.007843,-0.007843,-0.007843,-1.960784,-1.960784,-1.960784,3
0,0,-8.470588,-0.007843,-0.007843,-0.007843,-1.960784,-1.960784,-1.960784,3
0,0,-8.470588,-0.007843,-0.007843,-0.007843,-1.960784,-1.960784,-1.960784,3
0,0,-8.470588,-0.007843,-0.007843,-0.023529,-1.960784,-1.960784,-1.960784,3
0,0,-8.470588,-0.007843,-0.007843,-0.007843,-1.960784,-1.960784,-1.960784,3
0,0,-8.470588,-0.007843,-0.007843,-0.007843,-1.960784,-1.960784,-1.960784,3
0,0,-8.470588,-0.007843,-0.007843,-0.007843,-1.960784,-1.960784,-1.960784,3
0,0,-8.470588,-0.007843,-0.007843,-0.007843,-1.960784,-1.960784,-1.960784,3
0,0,-8.470588,-0.007843,-0.007843,-0.007843,-1.960784,-1.960784,-1.960784,3
0,0,-8.470588,-0.007843,-0.007843,-0.007843,-1.960784,-1.960784,-1.960784,3
0,0,-8.470588,-0.007843,-0.007843,-0.007843,-1.960784,-1.960784,-1.960784,3
0,0,-8.470588,-0.007843,-0.007843,-0.007843,-1.960784,-1.960784,-1.960784,3
0,0,-8.470588,-0.007843,-0.007843,-0.007843,-1.960784,-1.960784,-1.960784,3
0,0,-8.470588,-0.007843,-0.007843,-0.007843,-1.960784,-1.960784,-1.960784,3
0,0,-8.470588,-0.007843,-0.007843,-0.007843,-1.960784,-1.960784,-1.960784,3
0,0,-8.470588,-0.007843,-0.007843,-0.007843,-1.960784,-1.960784,-1.960784,3
0,0,-8.470588,-0.007843,-0.007843,-0.007843,-1.960784,-1.960784,-1.960784,3
0,0,-8.470588,-0.007843,-0.007843,-0.007843,-1.960784,-1.960784,-1.960784,3
0,0,-8.470588,-0.007843,-0.007843,-0.007843,-1.960784,-1.960784,-1.960784,3
0,0,-8.470588,-0.007843,-0.007843,-0.007843,-1.960784,-1.960784,-1.960784,3
0,0,-8.470588,-0.007843,-0.007843,-0.007843,-1.960784,-1.960784,-1.960784,3
0,0,-8.470588,-0.007843,-0.007843,-0.007843,-1.960784,-1.960784,-1.960784,3
0,0,-8.470588,-0.007843,-0.007843,-0.007843,-1.960784,-1.960784,-1.960784,3
0,0,-8.470588,-0.007843,-0.007843,-0.007843,-1.960784,-1.960784,-1.960784,3
-2.823529,0,-8.470588,-0.007843,-0.007843,-0.007843,-1.960784,-1.960784,-1.960784,3
-2.823529,0,-8.470588,-0.007843,-0.007843,-0.007843,-1.960784,-1.960784,-1.960784,3
-2.823529,0,-8.470588,-0.007843,-0.007843,-0.007843,-1.960784,-1.960784,-1.960784,3
0,0,-8.470588,-0.007843,-0.007843,-0.007843,-1.960784,-1.960784,-1.960784,3
-2.823529,0,-8.470588,-0.007843,-0.007843,-0.007843,-1.960784,-1.960784,-1.960784,3
0,0,-8.470588,-0.007843,-0.007843,-0.007843,-1.960784,-1.960784,-1.960784,3
0,0,-8.470588,-0.007843,-0.007843,-0.007843,-1.960784,-1.960784,-1.960784,3
0,0,-8.470588,-0.007843,-0.007843,-0.007843,-1.960784,-1.960784,-1.960784,3
0,0,-8.470588,-0.007843,-0.007843,-0.007843,-1.960784,-1.960784,-1.960784,3
0,0,-8.470588,-0.007843,-0.007843,-0.007843,-1.960784,-1.960784,-1.960784,3
-2.823529,0,-8.470588,-0.007843,-0.007843,-0.007843,-1.960784,-1.960784,-1.960784,3
-2.823529,0,-8.470588,-0.007843,-0.007843,-0.007843,-1.960784,-1.960784,-1.960784,3
-2.823529,0,-8.470588,-0.007843,-0.007843,-0.007843,-1.960784,-1.960784,-1.960784,3
0,0,-8.470588,-0.007843,-0.007843,-0.007843,-1.960784,-1.960784,-1.960784,3
0,0,-8.470588,-0.007843,-0.007843,-0.007843,-1.960784,-1.960784,-1.960784,3
0,0,-8.470588,-0.007843,-0.007843,-0.007843,-1.960784,-1.960784,-1.960784,3
-2.823529,0,-8.470588,-0.007843,-0.007843,-0.007843,-1.960784,-1.960784,-1.960784,3
0,0,-8.470588,-0.007843,-0.007843,-0.007843,-1.960784,-1.960784,-1.960784,3
-2.823529,0,-8.470588,-0.007843,-0.007843,-0.007843,-1.960784,-1.960784,-1.960784,3
0,0,-8.470588,-0.007843,-0.007843,-0.007843,-1.960784,-1.960784,-1.960784,3
-2.823529,0,-8.470588,-0.007843,-0.007843,-0.007843,-1.960784,-1.960784,-1.960784,3
0,0,-8.470588,-0.007843,-0.007843,-0.007843,-1.960784,-1.960784,-1.960784,3
0,0,-8.470588,-0.007843,-0.007843,-0.007843,-1.960784,-1.960784,-1.960784,3
-2.823529,0,-8.470588,-0.007843,-0.007843,-0.007843,-1.960784,-1.960784,-1.960784,3
-2.823529,0,-8.470588,-0.007843,-0.007843,-0.007843,-1.960784,-1.960784,-1.960784,3
-2.823529,0,-8.470588,-0.007843,-0.007843,-0.007843,-1.960784,-1.960784,-1.960784,3
-2.823529,0,-8.470588,-0.007843,-0.007843,-0.007843,-1.960784,-1.960784,-1.960784,3
-2.823529,0,-8.470588,-0.007843,-0.007843,-0.007843,-1.960784,-1.960784,-1.960784,3
-2.823529,0,-8.470588,-0.007843,-0.007843,-0.007843,-1.960784,-1.960784,-1.960784,3
-2.823529,0,-8.470588,-0.007843,-0.007843,-0.023529,-1.960784,-1.960784,-1.960784,3
-2.823529,0,-8.470588,-0.007843,-0.007843,-0.007843,-1.960784,-1.960784,-1.960784,3
0,0,-8.470588,-0.007843,-0.007843,-0.007843,-1.960784,-1.960784,-1.960784,3
0,0,-8.470588,-0.007843,-0.007843,-0.007843,-1.960784,-1.960784,-1.960784,3
0,0,-8.470588,-0.007843,-0.007843,-0.007843,-1.960784,-1.960784,-1.960784,3
-2.823529,0,-8.470588,-0.007843,-0.007843,-0.007843,-1.960784,-1.960784,-1.960784,3
-2.823529,0,-8.470588,-0.007843,-0.007843,-0.007843,-1.960784,-1.960784,-1.960784,3
-2.823529,0,-8.470588,-0.007843,-0.007843,-0.007843,-1.960784,-1.960784,-1.960784,3
-2.823529,0,-8.470588,-0.007843,-0.007843,-0.007843,-1.960784,-1.960784,-1.960784,3
0,0,-8.470588,-0.007843,-0.007843,-0.007843,-1.960784,-1.960784,-1.960784,3
0,0,-8.470588,-0.007843,-0.007843,-0.007843,-1.960784,-1.960784,-1.960784,3
0,0,-8.470588,-0.007843,-0.007843,-0.007843,-1.960784,-1.960784,-1.960784,3
0,0,-8.470588,-0.007843,-0.007843,-0.007843,-1.960784,-1.960784,-1.960784,3
0,0,-8.470588,-0.007843,-0.007843,-0.007843,-1.960784,-1.960784,-1.960784,3
0,0,-8.470588,-0.007843,-0.007843,-0.007843,-1.960784,-1.960784,-1.960784,3
0,0,-8.470588,-0.007843,-0.007843,-0.007843,-1.960784,-1.960784,-1.960784,3
0,0,-8.470588,-0.007843,-0.007843,0.007843,-1.960784,-1.960784,-1.960784,3
0,0,-8.470588,-0.007843,-0.007843,-0.023529,-1.960784,-1.960784,-1.960784,3
-2.823529,0,-8.470588,-0.007843,-0.007843,-0.007843,-1.960784,-1.960784,-1.960784,3
0,0,-8.470588,-0.007843,-0.007843,-0.007843,-1.960784,-1.960784,-1.960784,3
0,0,-8.470588,-0.007843,-0.007843,-0.007843,-1.960784,-1.960784,-1.960784,3
0,0,-8.470588,-0.007843,-0.007843,-0.007843,-1.960784,-1.960784,-1.960784,3
0,0,-8.470588,-0.007843,-0.007843,-0.007843,-1.960784,-1.960784,-1.960784,3
-2.823529,0,-8.470588,-0.007843,-0.007843,-0.007843,-1.960784,-1.960784,-1.960784,3
-2.823529,0,-8.470588,-0.007843,-0.007843,-0.007843,-1.960784,-1.960784,-1.960784,3
-2.823529,0,-8.470588,-0.007843,-0.007843,-0.007843,-1.960784,-1.960784,-1.960784,3
-2.823529,0,-8.470588,-0.007843,-0.007843,-0.007843,-1.960784,-1.960784,-1.960784,3
-2.823529,0,-8.470588,-0.007843,-0.007843,-0.007843,-1.960784,-1.960784,-1.960784,3
-2.823529,0,-8.470588,-0.007843,-0.007843,-0.007843,-1.960784,-1.960784,-1.960784,3
-2.823529,0,-8.470588,-0.007843,-0.007843,-0.007843,-1.960784,-1.960784,-1.960784,3
-2.823529,0,-8.470588,-0.007843,-0.007843,-0.007843,-1.960784,-1.960784,-1.960784,3
-2.823529,0,-8.470588,-0.007843,-0.007843,-0.007843,-1.960784,-1.960784,-1.960784,3
-2.823529,0,-8.470588,-0.007843,-0.007843,-0.007843,-1.960784,-1.960784,-1.960784,3
-2.823529,0,-8.470588,-0.007843,-0.007843,-0.007843,-1.960784,-1.960784,-1.960784,3
-2.823529,0,-8.470588,-0.007843,-0.007843,-0.007843,-1.960784,-1.960784,-1.960784,3
-2.823529,0,-8.470588,-0.007843,-0.007843,-0.007843,-1.960784,-1.960784,-1.960784,3
-2.823529,0,-8.470588,-0.007843,-0.007843,-0.007843,-1.960784,-1.960784,-1.960784,3
-2.823529,0,-8.470588,-0.007843,-0.007843,-0.007843,-1.960784,-1.960784,-1.960784,3
-2.823529,0,-8.470588,-0.007843,-0.007843,-0.007843,-1.960784,-1.960784,-1.960784,3
-2.823529,0,-8.470588,-0.007843,-0.007843,-0.007843,-1.960784,-1.960784,-1.960784,3
0,0,-8.470588,-0.007843,-0.007843,-0.007843,-1.960784,-1.960784,-1.960784,3
0,0,-8.470588,-0.007843,-0.007843,-0.007843,-1.960784,-1.960784,-1.960784,3
0,0,-8.470588,-0.007843,-0.007843,-0.007843,-1.960784,-1.960784,-1.960784,3
0,0,-8.470588,-0.007843,-0.007843,-0.007843,-1.960784,-1.960784,-1.960784,3
-2.823529,0,-8.470588,-0.007843,-0.007843,-0.007843,-1.960784,-1.960784,-1.960784,3
-2.823529,0,-8.470588,-0.007843,-0.007843,-0.007843,-1.960784,-1.960784,-1.960784,3
-2.823529,0,-8.470588,-0.007843,-0.007843,-0.007843,-1.960784,-1.960784,-1.960784,3
-2.823529,0,-8.470588,-0.007843,-0.007843,-0.007843,-1.960784,-1.960784,-1.960784,3
0,0,-8.470588,-0.007843,-0.007843,-0.007843,-1.960784,-1.960784,-1.960784,3
0,0,-8.470588,-0.007843,-0.007843,-0.007843,-1.960784,-1.960784,-1.960784,3
-2.823529,0,-8.470588,-0.007843,-0.007843,-0.007843,-1.960784,-1.960784,-1.960784,3
-2.823529,0,-8.470588,-0.007843,-0.007843,-0.007843,-1.960784,-1.960784,-1.960784,3
-2.823529,0,-8.470588,-0.007843,-0.007843,-0.007843,-1.960784,-1.960784,-1.960784,3
-2.823529,0,-8.470588,-0.007843,-0.007843,-0.007843,-1.960784,-1.960784,-1.960784,3
0,0,-8.470588,-0.007843,-0.007843,-0.007843,-1.960784,-1.960784,-1.960784,3
-2.823529,0,-8.470588,-0.007843,-0.007843,-0.007843,-1.960784,-1.960784,-1.960784,3
-2.823529,0,-8.470588,-0.007843,-0.007843,-0.007843,-1.960784,-1.960784,-1.960784,3
0,0,-8.470588,-0.007843,-0.007843,-0.007843,-1.960784,-1.960784,-1.960784,3
0,0,-8.470588,-0.007843,-0.007843,-0.007843,-1.960784,-1.960784,-1.960784,3
0,0,-8.470588,-0.007843,-0.007843,-0.007843,-1.960784,-1.960784,-1.960784,3
0,0,-8.470588,-0.007843,-0.007843,-0.007843,-1.960784,-1.960784,-1.960784,3
0,0,-8.470588,-0.007843,-0.007843,-0.007843,-1.960784,-1.960784,-1.960784,3
0,0,-8.470588,-0.007843,-0.007843,-0.007843,-1.960784,-1.960784,-1.960784,3
0,0,-8.470588,-0.007843,-0.007843,-0.007843,-1.960784,-1.960784,-1.960784,3
0,0,-8.470588,-0.007843,-0.007843,-0.007843,-1.960784,-1.960784,-1.960784,3
0,0,-8.470588,-0.007843,-0.007843,-0.007843,-1.960784,-1.960784,-1.960784,3
0,0,-8.470588,-0.007843,-0.007843,-0.007843,-1.960784,-1.960784,-1.960784,3
0,0,-8.470588,-0.007843,-0.007843,-0.007843,-1.960784,-1.960784,-1.960784,3
0,0,-8.470588,-0.007843,-0.007843,-0.007843,-1.960784,-1.960784,-1.960784,3
0,0,-8.470588,-0.007843,-0.007843,-0.007843,-1.960784,-1.960784,-1.960784,3
0,0,-8.470588,-0.007843,-0.007843,-0.007843,-1.960784,-1.960784,-1.960784,3
0,0,-8.470588,-0.007843,-0.007843,-0.007843,-1.960784,-1.960784,-1.960784,3
0,0,-8.470588,-0.007843,-0.007843,-0.007843,-1.960784,-1.960784,-1.960784,3
0,0,-8.470588,-0.007843,-0.007843,-0.007843,-1.960784,-1.960784,-1.960784,3
0,0,-8.470588,-0.007843,-0.007843,-0.007843,-1.960784,-1.960784,-1.960784,3
0,0,-8.470588,-0.007843,-0.007843,-0.007843,-1.960784,-1.960784,-1.960784,3
0,0,-8.470588,-0.007843,-0.007843,-0.007843,-1.960784,-1.960784,-1.960784,3
0,0,-8.470588,-0.007843,-0.007843,-0.007843,-1.960784,-1.960784,-1.960784,3
0,0,-8.470588,-0.007843,-0.007843,-0.007843,-1.960784,-1.960784,-1.960784,3
0,0,-8.470588,-0.007843,-0.007843,-0.007843,-1.960784,-1.960784,-1.960784,3
0,0,-8.470588,-0.007843,-0.007843,-0.007843,-1.960784,-1.960784,-1.960784,3
0,0,-8.470588,-0.007843,-0.007843,-0.007843,-1.960784,-1.960784,-1.960784,3
0,0,-8.470588,-0.007843,-0.007843,-0.007843,-1.960784,-1.960784,-1.960784,3
0,0,-8.470588,-0.007843,-0.007843,-0.007843,-1.960784,-1.960784,-1.960784,3
0,0,-8.470588,-0.007843,-0.007843,-0.007843,-1.960784,-1.960784,-1.960784,3
0,0,-8.470588,-0.007843,-0.007843,-0.007843,-1.960784,-1.960784,-1.960784,3
0,0,-8.470588,-0.007843,-0.007843,-0.007843,-1.960784,-1.960784,-1.960784,3
0,0,-8.470588,-0.007843,-0.007843,-0.007843,-1.960784,-1.960784,-1.960784,3
0,0,-8.470588,-0.007843,-0.007843,-0.007843,-1.960784,-1.960784,-1.960784,3
0,0,-8.470588,-0.007843,-0.007843,-0.007843,-1.960784,-1.960784,-1.960784,3
0,0,-8.470588,-0.007843,-0.007843,-0.007843,-1.960784,-1.960784,-1.960784,3
0,0,-8.470588,-0.007843,-0.007843,-0.007843,-1.960784,-1.960784,-1.960784,3
0,0,-8.470588,-0.007843,-0.007843,-0.007843,-1.960784,-1.960784,-1.960784,3
0,0,-8.470588,-0.007843,-0.007843,-0.007843,-1.960784,-1.960784,-1.960784,3
0,0,-8.470588,-0.007843,-0.007843,-0.007843,-1.960784,-1.960784,-1.960784,3
0,0,-8.470588,-0.007843,-0.007843,-0.007843,-1.960784,-1.960784,-1.960784,3
0,0,-8.470588,-0.007843,-0.007843,-0.007843,-1.960784,-1.960784,-1.960784,3
0,0,-8.470588,-0.007843,-0.007843,-0.007843,-1.960784,-1.960784,-1.960784,3
0,0,-8.470588,-0.007843,-0.007843,-0.007843,-1.960784,-1.960784,-1.960784,3
0,0,-8.470588,-0.007843,-0.007843,-0.007843,-1.960784,-1.960784,-1.960784,3
0,0,-8.470588,-0.007843,-0.007843,-0.007843,-1.960784,-1.960784,-1.960784,3
0,0,-8.470588,-0.007843,-0.007843,-0.007843,-1.960784,-1.960784,-1.960784,3
0,0,-8.470588,-0.007843,-0.007843,-0.007843,-1.960784,-1.960784,-1.960784,3
0,0,-8.470588,-0.007843,-0.007843,-0.007843,-1.960784,-1.960784,-1.960784,3
0,0,-8.470588,-0.007843,-0.007843,-0.007843,-1.960784,-1.960784,-1.960784,3
0,0,-8.470588,-0.007843,-0.007843,-0.007843,-1.960784,-1.960784,-1.960784,3
0,0,-8.470588,-0.007843,-0.007843,-0.007843,-1.960784,-1.960784,-1.960784,3
0,0,-8.470588,-0.007843,-0.007843,-0.007843,-1.960784,-1.960784,-1.960784,3
0,0,-8.470588,-0.007843,-0.007843,-0.007843,-1.960784,-1.960784,-1.960784,3
0,0,-8.470588,-0.007843,-0.007843,-0.007843,-1.960784,-1.960784,-1.960784,3
0,0,-8.470588,-0.007843,-0.007843,-0.007843,-1.960784,-1.960784,-1.960784,3
0,0,-8.470588,-0.007843,-0.007843,-0.007843,-1.960784,-1.960784,-1.960784,3
0,0,-8.470588,-0.007843,-0.007843,-0.007843,-1.960784,-1.960784,-1.960784,3
0,0,-8.470588,-0.007843,-0.007843,-0.007843,-1.960784,-1.960784,-1.960784,3
0,0,-8.470588,-0.007843,-0.007843,-0.007843,-1.960784,-1.960784,-1.960784,3
0,0,-8.470588,-0.007843,-0.007843,-0.007843,-1.960784,-1.960784,-1.960784,3
0,0,-8.470588,-0.007843,-0.007843,-0.007843,-1.960784,-1.960784,-1.960784,3
0,0,-8.470588,-0.007843,-0.007843,-0.007843,-1.960784,-1.960784,-1.960784,3
0,0,-8.470588,-0.007843,-0.007843,-0.007843,-1.960784,-1.960784,-1.960784,3
0,0,-8.470588,-0.007843,-0.007843,-0.007843,-1.960784,-1.960784,-1.960784,3
0,0,-8.470588,-0.007843,-0.007843,-0.007843,-1.960784,-1.960784,-1.960784,3
0,0,-8.470588,-0.007843,-0.007843,-0.007843,-1.960784,-1.960784,-1.960784,3
0,0,-8.470588,-0.007843,-0.007843,-0.007843,-1.960784,-1.960784,-1.960784,3
0,0,-8.470588,-0.007843,-0.007843,-0.007843,-1.960784,-1.960784,-1.960784,3
0,0,-8.470588,-0.007843,-0.007843,-0.007843,-1.960784,-1.960784,-1.960784,3
0,0,-8.470588,-0.007843,-0.007843,-0.007843,-1.960784,-1.960784,-1.960784,3
0,0,-8.470588,-0.007843,-0.007843,-0.007843,-1.960784,-1.960784,-1.960784,3
0,0,-8.470588,-0.007843,-0.007843,-0.007843,-1.960784,-1.960784,-1.960784,3
0,0,-8.470588,-0.007843,-0.007843,-0.007843,-1.960784,-1.960784,-1.960784,3
0,0,-8.470588,-0.007843,-0.007843,-0.007843,-1.960784,-1.960784,-1.960784,3
0,0,-8.470588,-0.007843,-0.007843,-0.007843,-1.960784,-1.960784,-1.960784,3
0,0,-8.470588,-0.007843,-0.007843,-0.007843,-1.960784,-1.960784,-1.960784,3
0,0,-8.470588,-0.007843,-0.007843,-0.007843,-1.960784,-1.960784,-1.960784,3
0,0,-8.470588,-0.007843,-0.007843,-0.007843,-1.960784,-1.960784,-1.960784,3
0,0,-8.470588,-0.007843,-0.007843,-0.007843,-1.960784,-1.960784,-1.960784,3
0,0,-8.470588,-0.007843,-0.007843,-0.007843,-1.960784,-1.960784,-1.960784,3
0,0,-8.470588,-0.007843,-0.007843,-0.007843,-1.960784,-1.960784,-1.960784,3
0,0,-8.470588,-0.007843,-0.007843,-0.007843,-1.960784,-1.960784,-1.960784,3
0,0,-8.470588,-0.007843,-0.007843,-0.007843,-1.960784,-1.960784,-1.960784,3
0,0,-8.470588,-0.007843,-0.007843,-0.007843,-1.960784,-1.960784,-1.960784,3
0,0,-8.470588,-0.007843,-0.007843,-0.007843,-1.960784,-1.960784,-1.960784,3
0,0,-8.470588,-0.007843,-0.007843,-0.007843,-1.960784,-1.960784,-1.960784,3
0,0,-8.470588,-0.007843,-0.007843,-0.007843,-1.960784,-1.960784,-1.960784,3
0,0,-8.470588,-0.007843,-0.007843,-0.007843,-1.960784,-1.960784,-1.960784,3
0,0,-8.470588,-0.007843,-0.007843,-0.007843,-1.960784,-1.960784,-1.960784,3
0,0,-8.470588,-0.007843,-0.007843,-0.007843,-1.960784,-1.960784,-1.960784,3
0,0,-8.470588,-0.007843,-0.007843,-0.007843,-1.960784,-1.960784,-1.960784,3
0,0,-8.470588,-0.007843,-0.007843,-0.007843,-1.960784,-1.960784,-1.960784,3
0,0,-8.470588,-0.007843,-0.007843,-0.007843,-1.960784,-1.960784,-1.960784,3
0,0,-8.470588,-0.007843,-0.007843,-0.007843,-1.960784,-1.960784,-1.960784,3
0,0,-8.470588,-0.007843,-0.007843,-0.007843,-1.960784,-1.960784,-1.960784,3
0,0,-8.470588,-0.007843,-0.007843,-0.007843,-1.960784,-1.960784,-1.960784,3
0,0,-8.470588,-0.007843,-0.007843,-0.007843,-1.960784,-1.960784,-1.960784,3
0,0,-8.470588,-0.007843,-0.007843,-0.007843,-1.960784,-1.960784,-1.960784,3
0,0,-8.470588,-0.007843,-0.007843,-0.007843,-1.960784,-1.960784,-1.960784,3
0,0,-8.470588,-0.007843,-0.007843,-0.007843,-1.960784,-1.960784,-1.960784,3
0,0,-8.470588,-0.007843,-0.007843,-0.007843,-1.960784,-1.960784,-1.960784,3
0,0,-8.470588,-0.007843,-0.007843,-0.007843,-1.960784,-1.960784,-1.960784,3
0,0,-8.470588,-0.007843,-0.007843,-0.007843,-1.960784,-1.960784,-1.960784,3
0,0,-8.470588,-0.007843,-0.007843,-0.007843,-1.960784,-1.960784,-1.960784,3
0,0,-8.470588,-0.007843,-0.007843,-0.007843,-1.960784,-1.960784,-1.960784,3
0,0,-8.470588,-0.007843,-0.007843,-0.007843,-1.960784,-1.960784,-1.960784,3
0,0,-8.470588,-0.007843,-0.007843,-0.007843,-1.960784,-1.960784,-1.960784,3
0,0,-8.470588,-0.007843,-0.007843,-0.007843,-1.960784,-1.960784,-1.960784,3
0,0,-8.470588,-0.007843,-0.007843,-0.007843,-1.960784,-1.960784,-1.960784,3
0,0,-8.470588,-0.007843,-0.007843,-0.007843,-1.960784,-1.960784,-1.960784,3
0,0,-8.470588,-0.007843,-0.007843,-0.007843,-1.960784,-1.960784,-1.960784,3
0,0,-8.470588,-0.007843,-0.007843,-0.007843,-1.960784,-1.960784,-1.960784,3
0,0,-8.470588,-0.007843,-0.007843,-0.007843,-1.960784,-1.960784,-1.960784,3
0,0,-8.470588,-0.007843,-0.007843,-0.007843,-1.960784,-1.960784,-1.960784,3
0,0,-8.470588,-0.007843,-0.007843,-0.007843,-1.960784,-1.960784,-1.960784,3
0,0,-8.470588,-0.007843,-0.007843,-0.007843,-1.960784,-1.960784,-1.960784,3
0,0,-8.470588,-0.007843,-0.007843,-0.007843,-1.960784,-1.960784,-1.960784,3
0,0,-8.470588,-0.007843,-0.007843,-0.007843,-1.960784,-1.960784,-1.960784,3
0,0,-8.470588,-0.007843,-0.007843,-0.007843,-1.960784,-1.960784,-1.960784,3
0,0,-8.470588,-0.007843,-0.007843,-0.007843,-1.960784,-1.960784,-1.960784,3
0,0,-8.470588,-0.007843,-0.007843,-0.007843,-1.960784,-1.960784,-1.960784,3
0,0,-8.470588,-0.007843,-0.007843,-0.007843,-1.960784,-1.960784,-1.960784,3
0,0,-8.470588,-0.007843,-0.007843,-0.007843,-1.960784,-1.960784,-1.960784,3
0,0,-8.470588,-0.007843,-0.007843,-0.007843,-1.960784,-1.960784,-1.960784,3
0,0,-8.470588,-0.007843,-0.007843,-0.007843,-1.960784,-1.960784,-1.960784,3
0,0,-8.470588,-0.007843,-0.007843,-0.007843,-1.960784,-1.960784,-1.960784,3
0,0,-8.470588,-0.007843,-0.007843,-0.007843,-1.960784,-1.960784,-1.960784,3
0,0,-8.470588,-0.007843,-0.007843,-0.007843,-1.960784,-1.960784,-1.960784,3
0,0,-8.470588,-0.007843,-0.007843,-0.007843,-1.960784,-1.960784,-1.960784,3
0,0,-8.470588,-0.007843,-0.007843,-0.007843,-1.960784,-1.960784,-1.960784,3
0,0,-8.470588,-0.007843,-0.007843,-0.007843,-1.960784,-1.960784,-1.960784,3
0,0,-8.470588,-0.007843,-0.007843,-0.007843,-1.960784,-1.960784,-1.960784,3
0,0,-8.470588,-0.007843,-0.007843,-0.007843,-1.960784,-1.960784,-1.960784,3
0,0,-8.470588,-0.007843,-0.007843,-0.007843,-1.960784,-1.960784,-1.960784,3
0,0,-8.470588,-0.007843,-0.007843,-0.007843,-1.960784,-1.960784,-1.960784,3
0,0,-8.470588,-0.007843,-0.007843,-0.007843,-1.960784,-1.960784,-1.960784,3
0,0,-8.470588,-0.007843,-0.007843,-0.007843,-1.960784,-1.960784,-1.960784,3
0,0,-8.470588,-0.007843,-0.007843,-0.007843,-1.960784,-1.960784,-1.960784,3
0,0,-8.470588,-0.007843,-0.007843,-0.007843,-1.960784,-1.960784,-1.960784,3
0,0,-8.470588,-0.007843,-0.007843,-0.007843,-1.960784,-1.960784,-1.960784,3
0,0,-8.470588,-0.007843,-0.007843,-0.007843,-1.960784,-1.960784,-1.960784,3
0,0,-8.470588,-0.007843,-0.007843,-0.007843,-1.960784,-1.960784,-1.960784,3
0,0,-8.470588,-0.007843,-0.007843,-0.007843,-1.960784,-1.960784,-1.960784,3
0,0,-8.470588,-0.007843,-0.007843,-0.007843,-1.960784,-1.960784,-1.960784,3
0,0,-8.470588,-0.007843,-0.007843,-0.007843,-1.960784,-1.960784,-1.960784,3
0,0,-8.470588,-0.007843,-0.007843,-0.007843,-1.960784,-1.960784,-1.960784,3
0,0,-8.470588,-0.007843,-0.007843,-0.007843,-1.960784,-1.960784,-1.960784,3
0,0,-8.470588,-0.007843,-0.007843,-0.007843,-1.960784,-1.960784,-1.960784,3
0,0,-8.470588,-0.007843,-0.007843,-0.007843,-1.960784,-1.960784,-1.960784,3
0,0,-8.470588,-0.007843,-0.007843,-0.007843,-1.960784,-1.960784,-1.960784,3
0,0,-8.470588,-0.007843,-0.007843,-0.007843,-1.960784,-1.960784,-1.960784,3
0,0,-8.470588,-0.007843,-0.007843,-0.007843,-1.960784,-1.960784,-1.960784,3
0,0,-8.470588,-0.007843,-0.007843,-0.007843,-1.960784,-1.960784,-1.960784,3
0,0,-8.470588,-0.007843,-0.007843,-0.007843,-1.960784,-1.960784,-1.960784,3
0,0,-8.470588,-0.007843,-0.007843,-0.007843,-1.960784,-1.960784,-1.960784,3
0,0,-8.470588,-0.007843,-0.007843,-0.007843,-1.960784,-1.960784,-1.960784,3
0,0,-8.470588,-0.007843,-0.007843,-0.007843,-1.960784,-1.960784,-1.960784,3
0,0,-8.470588,-0.007843,-0.007843,-0.007843,-1.960784,-1.960784,-1.960784,3
0,0,-8.470588,-0.007843,-0.007843,-0.007843,-1.960784,-1.960784,-1.960784,3
0,0,-8.470588,-0.007843,-0.007843,-0.007843,-1.960784,-1.960784,-1.960784,3
0,0,-8.470588,-0.007843,-0.007843,-0.007843,-1.960784,-1.960784,-1.960784,3
0,0,-8.470588,-0.007843,-0.007843,-0.007843,-1.960784,-1.960784,-1.960784,3
0,0,-8.470588,-0.007843,-0.007843,-0.007843,-1.960784,-1.960784,-1.960784,3
0,0,-8.470588,-0.007843,-0.007843,-0.007843,-1.960784,-1.960784,-1.960784,3
0,0,-8.470588,-0.007843,-0.007843,-0.007843,-1.960784,-1.960784,-1.960784,3
0,0,-8.470588,-0.007843,-0.007843,-0.007843,-1.960784,-1.960784,-1.960784,3
0,0,-8.470588,-0.007843,-0.007843,-0.007843,-1.960784,-1.960784,-1.960784,3
0,0,-8.470588,-0.007843,-0.007843,-0.007843,-1.960784,-1.960784,-1.960784,3
0,0,-8.470588,-0.007843,-0.007843,-0.007843,-1.960784,-1.960784,-1.960784,3
0,0,-8.470588,-0.007843,-0.007843,-0.007843,-1.960784,-1.960784,-1.960784,3
0,0,-8.470588,-0.007843,-0.007843,-0.007843,-1.960784,-1.960784,-1.960784,3
0,0,-8.470588,-0.007843,-0.007843,0.007843,-1.960784,-1.960784,-1.960784,3
0,0,-8.470588,-0.007843,-0.007843,-0.007843,-1.960784,-1.960784,-1.960784,3
0,0,-8.470588,-0.007843,-0.007843,-0.007843,-1.960784,-1.960784,-1.960784,3
0,0,-8.470588,-0.007843,-0.007843,-0.007843,-1.960784,-1.960784,-1.960784,3
0,0,-8.470588,-0.007843,-0.007843,-0.007843,-1.960784,-1.960784,-1.960784,3
0,0,-8.470588,-0.007843,-0.007843,-0.007843,-1.960784,-1.960784,-1.960784,3
0,0,-8.470588,-0.007843,-0.007843,-0.007843,-1.960784,-1.960784,-1.960784,3
0,0,-8.470588,-0.007843,-0.007843,-0.007843,-1.960784,-1.960784,-1.960784,3
0,0,-8.470588,-0.007843,-0.007843,-0.007843,-1.960784,-1.960784,-1.960784,3
0,0,-8.470588,-0.007843,-0.007843,-0.007843,-1.960784,-1.960784,-1.960784,3
0,0,-8.470588,-0.007843,-0.007843,-0.007843,-1.960784,-1.960784,-1.960784,3
0,0,-8.470588,-0.007843,-0.007843,-0.007843,-1.960784,-1.960784,-1.960784,3
0,0,-8.470588,-0.007843,-0.007843,-0.007843,-1.960784,-1.960784,-1.960784,3
0,0,-8.470588,-0.007843,-0.007843,-0.007843,-1.960784,-1.960784,-1.960784,3
0,0,-8.470588,-0.007843,-0.007843,-0.007843,-1.960784,-1.960784,-1.960784,3
0,0,-8.470588,-0.007843,-0.007843,-0.007843,-1.960784,-1.960784,-1.960784,3
0,-2.823529,-8.470588,-0.007843,-0.007843,-0.007843,-1.960784,-1.960784,-1.960784,3
0,-2.823529,-8.470588,-0.007843,-0.007843,-0.007843,-1.960784,-1.960784,-1.960784,3
0,-2.823529,-8.470588,-0.007843,-0.007843,-0.007843,-1.960784,-1.960784,-1.960784,3
0,0,-8.470588,-0.007843,-0.007843,-0.007843,-1.960784,-1.960784,-1.960784,3
0,0,-8.470588,-0.007843,-0.007843,-0.007843,-1.960784,-1.960784,-1.960784,3
0,0,-8.470588,-0.007843,-0.007843,-0.007843,-1.960784,-1.960784,-1.960784,3
0,0,-8.470588,-0.007843,-0.007843,-0.007843,-1.960784,-1.960784,-1.960784,3
0,0,-8.470588,-0.007843,-0.007843,-0.007843,-1.960784,-1.960784,-1.960784,3
0,0,-8.470588,-0.007843,-0.007843,-0.007843,-1.960784,-1.960784,-1.960784,3
0,-2.823529,-8.470588,-0.007843,-0.007843,-0.007843,-1.960784,-1.960784,-1.960784,3
0,-2.823529,-8.470588,-0.007843,-0.007843,-0.007843,-1.960784,-1.960784,-1.960784,3
0,-2.823529,-8.470588,-0.007843,-0.007843,-0.007843,-1.960784,-1.960784,-1.960784,3
0,-2.823529,-8.470588,-0.007843,-0.007843,-0.007843,-1.960784,-1.960784,-1.960784,3
0,-2.823529,-8.470588,-0.007843,-0.007843,-0.007843,-1.960784,-1.960784,-1.960784,3
0,-2.823529,-8.470588,-0.007843,-0.007843,-0.007843,-1.960784,-1.960784,-1.960784,3
0,0,-8.470588,-0.007843,-0.007843,-0.007843,-1.960784,-1.960784,-1.960784,3
0,0,-8.470588,-0.007843,-0.007843,-0.007843,-1.960784,-1.960784,-1.960784,3
0,0,-8.470588,-0.007843,-0.007843,-0.007843,-1.960784,-1.960784,-1.960784,3
0,0,-8.470588,-0.007843,-0.007843,-0.007843,-1.960784,-1.960784,-1.960784,3
0,0,-8.470588,-0.007843,-0.007843,-0.007843,-1.960784,-1.960784,-1.960784,3
0,0,-8.470588,-0.007843,-0.007843,-0.007843,-1.960784,-1.960784,-1.960784,3
0,0,-8.470588,-0.007843,-0.007843,-0.007843,-1.960784,-1.960784,-1.960784,3
0,0,-8.470588,-0.007843,-0.007843,-0.007843,-1.960784,-1.960784,-1.960784,3
0,0,-8.470588,-0.007843,-0.007843,-0.007843,-1.960784,-1.960784,-1.960784,3
0,0,-8.470588,-0.007843,-0.007843,-0.007843,-1.960784,-1.960784,-1.960784,3
0,0,-8.470588,-0.007843,-0.007843,-0.007843,-1.960784,-1.960784,-1.960784,3
0,0,-8.470588,-0.007843,-0.007843,-0.007843,-1.960784,-1.960784,-1.960784,3
0,0,-8.470588,-0.007843,-0.007843,0.007843,-1.960784,-1.960784,-1.960784,3
0,0,-8.470588,-0.007843,-0.007843,-0.007843,-1.960784,-1.960784,-1.960784,3
0,0,-8.470588,-0.007843,-0.007843,-0.007843,-1.960784,-1.960784,-1.960784,3
0,0,-8.470588,-0.007843,-0.007843,-0.007843,-1.960784,-1.960784,-1.960784,3
0,0,-8.470588,-0.007843,-0.007843,-0.007843,-1.960784,-1.960784,-1.960784,3
0,0,-8.470588,-0.007843,-0.007843,-0.007843,-1.960784,-1.960784,-1.960784,3
0,0,-8.470588,-0.007843,-0.007843,-0.007843,-1.960784,-1.960784,-1.960784,3
0,0,-8.470588,-0.007843,-0.007843,-0.007843,-1.960784,-1.960784,-1.960784,3
0,0,-8.470588,-0.007843,-0.007843,-0.007843,-1.960784,-1.960784,-1.960784,3
0,0,-8.470588,-0.007843,-0.007843,-0.007843,-1.960784,-1.960784,-1.960784,3
0,0,-8.470588,-0.007843,-0.007843,-0.007843,-1.960784,-1.960784,-1.960784,3
0,0,-8.470588,-0.007843,-0.007843,-0.007843,-1.960784,-1.960784,-1.960784,3
0,0,-8.470588,-0.007843,-0.007843,-0.007843,-1.960784,-1.960784,-1.960784,3
0,-2.823529,-8.470588,-0.007843,-0.007843,-0.007843,-1.960784,-1.960784,-1.960784,3
0,-2.823529,-8.470588,-0.007843,-0.007843,-0.007843,-1.960784,-1.960784,-1.960784,3
0,-2.823529,-8.470588,-0.007843,-0.007843,-0.007843,-1.960784,-1.960784,-1.960784,3
0,-2.823529,-8.470588,-0.007843,-0.007843,-0.007843,-1.960784,-1.960784,-1.960784,3
0,-2.823529,-8.470588,-0.007843,-0.007843,-0.007843,-1.960784,-1.960784,-1.960784,3
0,0,-8.470588,-0.007843,-0.007843,-0.007843,-1.960784,-1.960784,-1.960784,3
0,0,-8.470588,-0.007843,-0.007843,-0.023529,-1.960784,-1.960784,-1.960784,3
0,0,-8.470588,-0.007843,-0.007843,-0.007843,-1.960784,-1.960784,-1.960784,3
0,0,-8.470588,-0.007843,-0.007843,-0.007843,-1.960784,-1.960784,-1.960784,3
0,0,-8.470588,-0.007843,-0.007843,-0.007843,-1.960784,-1.960784,-1.960784,3
0,0,-8.470588,-0.007843,-0.007843,-0.007843,-1.960784,-1.960784,-1.960784,3
0,0,-8.470588,-0.007843,-0.007843,-0.007843,-1.960784,-1.960784,-1.960784,3
0,0,-8.470588,-0.007843,-0.007843,-0.007843,-1.960784,-1.960784,-1.960784,3
0,0,-8.470588,-0.007843,-0.007843,-0.007843,-1.960784,-1.960784,-1.960784,3
0,0,-8.470588,-0.007843,-0.007843,-0.007843,-1.960784,-1.960784,-1.960784,3
0,0,-8.470588,-0.007843,-0.007843,-0.007843,-1.960784,-1.960784,-1.960784,3
0,0,-8.470588,-0.007843,-0.007843,-0.007843,-1.960784,-1.960784,-1.960784,3
0,0,-8.470588,-0.007843,-0.007843,-0.007843,-1.960784,-1.960784,-1.960784,3
0,0,-8.470588,-0.007843,-0.007843,-0.007843,-1.960784,-1.960784,-1.960784,3
0,0,-8.470588,-0.007843,-0.007843,-0.007843,-1.960784,-1.960784,-1.960784,3
0,0,-8.470588,-0.007843,-0.007843,-0.007843,-1.960784,-1.960784,-1.960784,3
0,0,-8.470588,-0.007843,-0.007843,-0.007843,-1.960784,-1.960784,-1.960784,3
0,0,-8.470588,-0.007843,-0.007843,-0.007843,-1.960784,-1.960784,-1.960784,3
0,0,-8.470588,-0.007843,-0.007843,-0.007843,-1.960784,-1.960784,-1.960784,3
0,0,-8.470588,-0.007843,-0.007843,-0.023529,-1.960784,-1.960784,-1.960784,3
0,0,-8.470588,-0.007843,-0.007843,-0.007843,-1.960784,-1.960784,-1.960784,3
0,0,-8.470588,-0.007843,-0.007843,-0.007843,-1.960784,-1.960784,-1.960784,3
0,0,-8.470588,-0.007843,-0.007843,-0.007843,-1.960784,-1.960784,-1.960784,3
-2.823529,0,-8.470588,-0.007843,-0.007843,-0.007843,-1.960784,-1.960784,-1.960784,3
-2.823529,0,-8.470588,-0.007843,-0.007843,-0.007843,-1.960784,-1.960784,-1.960784,3
-2.823529,0,-8.470588,-0.007843,-0.007843,-0.007843,-1.960784,-1.960784,-1.960784,3
-2.823529,0,-8.470588,-0.007843,-0.007843,-0.007843,-1.960784,-1.960784,-1.960784,3
-2.823529,0,-8.470588,-0.007843,-0.007843,-0.007843,-1.960784,-1.960784,-1.960784,3
0,0,-8.470588,-0.007843,-0.007843,-0.007843,-1.960784,-1.960784,-1.960784,3
0,0,-8.470588,-0.007843,-0.007843,-0.007843,-1.960784,-1.960784,-1.960784,3
0,0,-8.470588,-0.007843,-0.007843,-0.007843,-1.960784,-1.960784,-1.960784,3
0,0,-8.470588,-0.007843,-0.007843,-0.007843,-1.960784,-1.960784,-1.960784,3
0,0,-8.470588,-0.007843,-0.007843,-0.007843,-1.960784,-1.960784,-1.960784,3
0,0,-8.470588,-0.007843,-0.007843,-0.007843,-1.960784,-1.960784,-1.960784,3
0,0,-8.470588,-0.007843,-0.007843,-0.007843,-1.960784,-1.960784,-1.960784,3
0,0,-8.470588,-0.007843,-0.007843,-0.007843,-1.960784,-1.960784,-1.960784,3
0,0,-8.470588,-0.007843,-0.007843,-0.007843,-1.960784,-1.960784,-1.960784,3
0,0,-8.470588,-0.007843,-0.007843,-0.007843,-1.960784,-1.960784,-1.960784,3
0,0,-8.470588,-0.007843,-0.007843,-0.007843,-1.960784,-1.960784,-1.960784,3
0,0,-8.470588,-0.007843,-0.007843,-0.007843,-1.960784,-1.960784,-1.960784,3
0,0,-8.470588,-0.007843,-0.007843,-0.007843,-1.960784,-1.960784,-1.960784,3
0,0,-8.470588,-0.007843,-0.007843,-0.023529,-1.960784,-1.960784,-1.960784,3
0,0,-8.470588,-0.007843,-0.007843,-0.007843,-1.960784,-1.960784,-1.960784,3
-2.823529,0,-8.470588,-0.007843,-0.007843,-0.007843,-1.960784,-1.960784,-1.960784,3
0,0,-8.470588,-0.007843,-0.007843,-0.007843,-1.960784,-1.960784,-1.960784,3
0,0,-8.470588,-0.007843,-0.007843,-0.007843,-1.960784,-1.960784,-1.960784,3
0,0,-8.470588,-0.007843,-0.007843,-0.007843,-1.960784,-1.960784,-1.960784,3
0,0,-8.470588,-0.007843,-0.007843,-0.007843,-1.960784,-1.960784,-1.960784,3
0,0,-8.470588,-0.007843,-0.007843,-0.007843,-1.960784,-1.960784,-1.960784,3
0,0,-8.470588,-0.007843,-0.007843,-0.007843,-1.960784,-1.960784,-1.960784,3
0,0,-8.470588,-0.007843,-0.007843,-0.007843,-1.960784,-1.960784,-1.960784,3
0,0,-8.470588,-0.007843,-0.007843,-0.007843,-1.960784,-1.960784,-1.960784,3
-2.823529,0,-8.470588,-0.007843,-0.007843,-0.023529,-1.960784,-1.960784,-1.960784,3
-2.823529,0,-8.470588,-0.007843,-0.007843,-0.007843,-1.960784,-1.960784,-1.960784,3
-2.823529,0,-8.470588,-0.007843,-0.007843,-0.007843,-1.960784,-1.960784,-1.960784,3
-2.823529,0,-8.470588,-0.007843,-0.007843,-0.007843,-1.960784,-1.960784,-1.960784,3
-2.823529,0,-8.470588,-0.007843,-0.007843,-0.007843,-1.960784,-1.960784,-1.960784,3
-2.823529,0,-8.470588,-0.007843,-0.007843,-0.007843,-1.960784,-1.960784,-1.960784,3
-2.823529,0,-8.470588,-0.007843,-0.007843,-0.007843,-1.960784,-1.960784,-1.960784,3
-2.823529,0,-8.470588,-0.007843,-0.007843,-0.007843,-1.960784,-1.960784,-1.960784,3
-2.823529,0,-8.470588,-0.007843,-0.007843,-0.007843,-1.960784,-1.960784,-1.960784,3
-2.823529,0,-8.470588,-0.007843,-0.007843,-0.007843,-1.960784,-1.960784,-1.960784,3
-2.823529,0,-8.470588,-0.007843,-0.007843,-0.007843,-1.960784,-1.960784,-1.960784,3
-2.823529,0,-8.470588,-0.007843,-0.007843,-0.007843,-1.960784,-1.960784,-1.960784,3
-2.823529,0,-8.470588,-0.007843,-0.007843,-0.007843,-1.960784,-1.960784,-1.960784,3
-2.823529,0,-8.470588,-0.007843,-0.007843,-0.007843,-1.960784,-1.960784,-1.960784,3
-2.823529,0,-8.470588,-0.007843,-0.007843,-0.007843,-1.960784,-1.960784,-1.960784,3
-2.823529,0,-8.470588,-0.007843,-0.007843,-0.007843,-1.960784,-1.960784,-1.960784,3
-2.823529,0,-8.470588,-0.007843,-0.007843,-0.007843,-1.960784,-1.960784,-1.960784,3
-2.823529,0,-8.470588,-0.007843,-0.007843,-0.007843,-1.960784,-1.960784,-1.960784,3
-2.823529,0,-8.470588,-0.007843,-0.007843,-0.007843,-1.960784,-1.960784,-1.960784,3
-2.823529,0,-8.470588,-0.007843,-0.007843,-0.007843,-1.960784,-1.960784,-1.960784,3
-2.823529,0,-8.470588,-0.007843,-0.007843,-0.007843,-1.960784,-1.960784,-1.960784,3
-2.823529,0,-8.470588,-0.007843,-0.007843,-0.007843,-1.960784,-1.960784,-1.960784,3
-2.823529,0,-8.470588,-0.007843,-0.007843,-0.007843,-1.960784,-1.960784,-1.960784,3
-2.823529,0,-8.470588,-0.007843,-0.007843,-0.007843,-1.960784,-1.960784,-1.960784,3
-2.823529,0,-8.470588,-0.007843,-0.007843,-0.007843,-1.960784,-1.960784,-1.960784,3
-2.823529,0,-8.470588,-0.007843,-0.007843,-0.007843,-1.960784,-1.960784,-1.960784,3
-2.823529,0,-8.470588,-0.007843,-0.007843,-0.007843,-1.960784,-1.960784,-1.960784,3
-2.823529,0,-8.470588,-0.007843,-0.007843,-0.007843,-1.960784,-1.960784,-1.960784,3
-2.823529,0,-8.470588,-0.007843,-0.007843,-0.007843,-1.960784,-1.960784,-1.960784,3
-2.823529,0,-8.470588,-0.007843,-0.007843,-0.007843,-1.960784,-1.960784,-1.960784,3
-2.823529,0,-8.470588,-0.007843,-0.007843,-0.007843,-1.960784,-1.960784,-1.960784,3
-2.823529,0,-8.470588,-0.007843,-0.007843,-0.007843,-1.960784,-1.960784,-1.960784,3
-2.823529,0,-8.470588,-0.007843,-0.007843,-0.007843,-1.960784,-1.960784,-1.960784,3
0,0,-8.470588,-0.007843,-0.007843,-0.007843,-1.960784,-1.960784,-1.960784,3
-2.823529,0,-8.470588,-0.007843,-0.007843,-0.007843,-1.960784,-1.960784,-1.960784,3
0,0,-8.470588,-0.007843,-0.007843,-0.007843,-1.960784,-1.960784,-1.960784,3
0,0,-8.470588,-0.007843,-0.007843,-0.007843,-1.960784,-1.960784,-1.960784,3
0,0,-8.470588,-0.007843,-0.007843,-0.007843,-1.960784,-1.960784,-1.960784,3
0,0,-8.470588,-0.007843,-0.007843,-0.007843,-1.960784,-1.960784,-1.960784,3
-2.823529,0,-8.470588,-0.007843,-0.007843,-0.007843,-1.960784,-1.960784,-1.960784,3
-2.823529,0,-8.470588,-0.007843,-0.007843,-0.007843,-1.960784,-1.960784,-1.960784,3
-2.823529,0,-8.470588,-0.007843,-0.007843,-0.007843,-1.960784,-1.960784,-1.960784,3
0,0,-8.470588,-0.007843,-0.007843,-0.007843,-1.960784,-1.960784,-1.960784,3
-2.823529,0,-8.470588,-0.007843,-0.007843,-0.007843,-1.960784,-1.960784,-1.960784,3
-2.823529,0,-8.470588,-0.007843,-0.007843,-0.007843,-1.960784,-1.960784,-1.960784,3
-2.823529,0,-8.470588,-0.007843,-0.007843,-0.007843,-1.960784,-1.960784,-1.960784,3
-2.823529,0,-8.470588,-0.007843,-0.007843,-0.007843,-1.960784,-1.960784,-1.960784,3
-2.823529,0,-8.470588,-0.007843,-0.007843,-0.007843,-1.960784,-1.960784,-1.960784,3
-2.823529,0,-8.470588,-0.007843,-0.007843,-0.007843,-1.960784,-1.960784,-1.960784,3
-2.823529,0,-8.470588,-0.007843,-0.007843,-0.007843,-1.960784,-1.960784,-1.960784,3
-2.823529,0,-8.470588,-0.007843,-0.007843,-0.007843,-1.960784,-1.960784,-1.960784,3
-2.823529,0,-8.470588,-0.007843,-0.007843,-0.007843,-1.960784,-1.960784,-1.960784,3
-2.823529,0,-8.470588,-0.007843,-0.007843,-0.007843,-1.960784,-1.960784,-1.960784,3
-2.823529,0,-8.470588,-0.007843,-0.007843,-0.007843,-1.960784,-1.960784,-1.960784,3
-2.823529,0,-8.470588,-0.007843,-0.007843,-0.007843,-1.960784,-1.960784,-1.960784,3
-2.823529,0,-8.470588,-0.007843,-0.007843,-0.007843,-1.960784,-1.960784,-1.960784,3
0,0,-8.470588,-0.007843,-0.007843,-0.007843,-1.960784,-1.960784,-1.960784,3
0,0,-8.470588,-0.007843,-0.007843,-0.007843,-1.960784,-1.960784,-1.960784,3
0,0,-8.470588,-0.007843,-0.007843,-0.007843,-1.960784,-1.960784,-1.960784,3
0,0,-8.470588,-0.007843,-0.007843,-0.007843,-1.960784,-1.960784,-1.960784,3
0,0,-8.470588,-0.007843,-0.007843,-0.007843,-1.960784,-1.960784,-1.960784,3
0,0,-8.470588,-0.007843,-0.007843,-0.007843,-1.960784,-1.960784,-1.960784,3
0,0,-8.470588,-0.007843,-0.007843,-0.007843,-1.960784,-1.960784,-1.960784,3
0,0,-8.470588,-0.007843,-0.007843,-0.007843,-1.960784,-1.960784,-1.960784,3
0,0,-8.470588,-0.007843,-0.007843,-0.007843,-1.960784,-1.960784,-1.960784,3
0,0,-8.470588,-0.007843,-0.007843,-0.007843,-1.960784,-1.960784,-1.960784,3
0,0,-8.470588,-0.007843,-0.007843,-0.007843,-1.960784,-1.960784,-1.960784,3
0,0,-8.470588,-0.007843,-0.007843,-0.007843,-1.960784,-1.960784,-1.960784,3
0,0,-8.470588,-0.007843,-0.007843,-0.007843,-1.960784,-1.960784,-1.960784,3
0,0,-8.470588,-0.007843,-0.007843,-0.007843,-1.960784,-1.960784,-1.960784,3
0,0,-8.470588,-0.007843,-0.007843,-0.007843,-1.960784,-1.960784,-1.960784,3
0,0,-8.470588,-0.007843,-0.007843,-0.007843,-1.960784,-1.960784,-1.960784,3
-2.823529,0,-8.470588,-0.007843,-0.007843,-0.007843,-1.960784,-1.960784,-1.960784,3
-2.823529,0,-8.470588,-0.007843,-0.007843,-0.007843,-1.960784,-1.960784,-1.960784,3
-2.823529,0,-8.470588,-0.007843,-0.007843,-0.007843,-1.960784,-1.960784,-1.960784,3
-2.823529,0,-8.470588,-0.007843,-0.007843,-0.007843,-1.960784,-1.960784,-1.960784,3
-2.823529,0,-8.470588,-0.007843,-0.007843,-0.007843,-1.960784,-1.960784,-1.960784,3
-2.823529,0,-8.470588,-0.007843,-0.007843,-0.007843,-1.960784,-1.960784,-1.960784,3
-2.823529,0,-8.470588,-0.007843,-0.007843,-0.007843,-1.960784,-1.960784,-1.960784,3
-2.823529,0,-8.470588,-0.007843,-0.007843,-0.007843,-1.960784,-1.960784,-1.960784,3
-2.823529,0,-8.470588,-0.007843,-0.007843,-0.007843,-1.960784,-1.960784,-1.960784,3
-2.823529,0,-8.470588,-0.007843,-0.007843,-0.007843,-1.960784,-1.960784,-1.960784,3
-2.823529,0,-8.470588,-0.007843,-0.007843,-0.007843,-1.960784,-1.960784,-1.960784,3
-2.823529,0,-8.470588,-0.007843,-0.007843,-0.007843,-1.960784,-1.960784,-1.960784,3
-2.823529,0,-8.470588,-0.007843,-0.007843,-0.007843,-1.960784,-1.960784,-1.960784,3
-2.823529,0,-8.470588,-0.007843,-0.007843,-0.007843,-1.960784,-1.960784,-1.960784,3
-2.823529,0,-8.470588,-0.007843,-0.007843,-0.007843,-1.960784,-1.960784,-1.960784,3
-2.823529,0,-8.470588,-0.007843,-0.007843,-0.007843,-1.960784,-1.960784,-1.960784,3
0,0,-8.470588,-0.007843,-0.007843,-0.007843,-1.960784,-1.960784,-1.960784,3
-2.823529,0,-8.470588,-0.007843,-0.007843,-0.007843,-1.960784,-1.960784,-1.960784,3
-2.823529,0,-8.470588,-0.007843,-0.007843,-0.007843,-1.960784,-1.960784,-1.960784,3
-2.823529,0,-8.470588,-0.007843,-0.007843,-0.007843,-1.960784,-1.960784,-1.960784,3
0,0,-8.470588,-0.007843,-0.007843,-0.007843,-1.960784,-1.960784,-1.960784,3
-2.823529,0,-8.470588,-0.007843,-0.007843,-0.007843,-1.960784,-1.960784,-1.960784,3
-2.823529,0,-8.470588,-0.007843,-0.007843,-0.007843,-1.960784,-1.960784,-1.960784,3
-2.823529,0,-8.470588,-0.007843,-0.007843,-0.007843,-1.960784,-1.960784,-1.960784,3
-2.823529,0,-8.470588,-0.007843,-0.007843,-0.007843,-1.960784,-1.960784,-1.960784,3
-2.823529,0,-8.470588,-0.007843,-0.007843,-0.007843,-1.960784,-1.960784,-1.960784,3
-2.823529,0,-8.470588,-0.007843,-0.007843,-0.007843,-1.960784,-1.960784,-1.960784,3
-2.823529,0,-8.470588,-0.007843,-0.007843,-0.007843,-1.960784,-1.960784,-1.960784,3
-2.823529,0,-8.470588,-0.007843,-0.007843,-0.007843,-1.960784,-1.960784,-1.960784,3
-2.823529,0,-8.470588,-0.007843,-0.007843,-0.007843,-1.960784,-1.960784,-1.960784,3
-2.823529,0,-8.470588,-0.007843,-0.007843,-0.007843,-1.960784,-1.960784,-1.960784,3
-2.823529,0,-8.470588,-0.007843,-0.007843,-0.007843,-1.960784,-1.960784,-1.960784,3
-2.823529,0,-8.470588,-0.007843,-0.007843,-0.007843,-1.960784,-1.960784,-1.960784,3
-2.823529,0,-8.470588,-0.007843,-0.007843,-0.007843,-1.960784,-1.960784,-1.960784,3
-2.823529,0,-8.470588,-0.007843,-0.007843,-0.007843,-1.960784,-1.960784,-1.960784,3
-2.823529,0,-8.470588,-0.007843,-0.007843,-0.007843,-1.960784,-1.960784,-1.960784,3
0,0,-8.470588,-0.007843,-0.007843,-0.007843,-1.960784,-1.960784,-1.960784,3
0,0,-8.470588,-0.007843,-0.007843,-0.007843,-1.960784,-1.960784,-1.960784,3
-2.823529,0,-8.470588,-0.007843,-0.007843,-0.007843,-1.960784,-1.960784,-1.960784,3
0,0,-8.470588,-0.007843,-0.007843,-0.007843,-1.960784,-1.960784,-1.960784,3
0,0,-8.470588,-0.007843,-0.007843,-0.007843,-1.960784,-1.960784,-1.960784,3
-2.823529,0,-8.470588,-0.007843,-0.007843,-0.007843,-1.960784,-1.960784,-1.960784,3
-2.823529,0,-8.470588,-0.007843,-0.007843,-0.007843,-1.960784,-1.960784,-1.960784,3
-2.823529,0,-8.470588,-0.007843,-0.007843,-0.007843,-1.960784,-1.960784,-1.960784,3
-2.823529,0,-8.470588,-0.007843,-0.007843,-0.007843,-1.960784,-1.960784,-1.960784,3
-2.823529,0,-8.470588,-0.007843,-0.007843,-0.007843,-1.960784,-1.960784,-1.960784,3
-2.823529,0,-8.470588,-0.007843,-0.007843,-0.007843,-1.960784,-1.960784,-1.960784,3
-2.823529,0,-8.470588,-0.007843,-0.007843,-0.007843,-1.960784,-1.960784,-1.960784,3
-2.823529,0,-8.470588,-0.007843,-0.007843,-0.007843,-1.960784,-1.960784,-1.960784,3
-2.823529,0,-8.470588,-0.007843,-0.007843,-0.007843,-1.960784,-1.960784,-1.960784,3
-2.823529,0,-8.470588,-0.007843,-0.007843,-0.007843,-1.960784,-1.960784,-1.960784,3
-2.823529,0,-8.470588,-0.007843,-0.007843,-0.007843,-1.960784,-1.960784,-1.960784,3
-2.823529,0,-8.470588,-0.007843,-0.007843,-0.007843,-1.960784,-1.960784,-1.960784,3
-2.823529,0,-8.470588,-0.007843,-0.007843,-0.007843,-1.960784,-1.960784,-1.960784,3
-2.823529,0,-8.470588,-0.007843,-0.007843,-0.007843,-1.960784,-1.960784,-1.960784,3
-2.823529,0,-8.470588,-0.007843,-0.007843,-0.007843,-1.960784,-1.960784,-1.960784,3
-2.823529,0,-8.470588,-0.007843,-0.007843,-0.007843,-1.960784,-1.960784,-1.960784,3
-2.823529,0,-8.470588,-0.007843,-0.007843,-0.007843,-1.960784,-1.960784,-1.960784,3
-2.823529,0,-8.470588,-0.007843,-0.007843,-0.007843,-1.960784,-1.960784,-1.960784,3
-2.823529,0,-8.470588,-0.007843,-0.007843,-0.007843,-1.960784,-1.960784,-1.960784,3
-2.823529,0,-8.470588,-0.007843,-0.007843,-0.007843,-1.960784,-1.960784,-1.960784,3
-2.823529,0,-8.470588,-0.007843,-0.007843,-0.007843,-1.960784,-1.960784,-1.960784,3
-2.823529,0,-8.470588,-0.007843,-0.007843,-0.007843,-1.960784,-1.960784,-1.960784,3
-2.823529,0,-8.470588,-0.007843,-0.007843,-0.023529,-1.960784,-1.960784,-1.960784,3
-2.823529,0,-8.470588,-0.007843,-0.007843,-0.007843,-1.960784,-1.960784,-1.960784,3
-2.823529,0,-8.470588,-0.007843,-0.007843,-0.007843,-1.960784,-1.960784,-1.960784,3
-2.823529,0,-8.470588,-0.007843,-0.007843,-0.007843,-1.960784,-1.960784,-1.960784,3
-2.823529,0,-8.470588,-0.007843,-0.007843,-0.007843,-1.960784,-1.960784,-1.960784,3
-2.823529,0,-8.470588,-0.007843,-0.007843,-0.007843,-1.960784,-1.960784,-1.960784,3
-2.823529,0,-8.470588,-0.007843,-0.007843,-0.007843,-1.960784,-1.960784,-1.960784,3
-2.823529,0,-8.470588,-0.007843,-0.007843,-0.007843,-1.960784,-1.960784,-1.960784,3
-2.823529,0,-8.470588,-0.007843,-0.007843,-0.007843,-1.960784,-1.960784,-1.960784,3
-2.823529,0,-8.470588,-0.007843,-0.007843,-0.007843,-1.960784,-1.960784,-1.960784,3
-2.823529,0,-8.470588,-0.007843,-0.007843,-0.007843,-1.960784,-1.960784,-1.960784,3
-2.823529,0,-8.470588,-0.007843,-0.007843,-0.007843,-1.960784,-1.960784,-1.960784,3
-2.823529,0,-8.470588,-0.007843,-0.007843,-0.007843,-1.960784,-1.960784,-1.960784,3
-2.823529,0,-8.470588,-0.007843,-0.007843,-0.007843,-1.960784,-1.960784,-1.960784,3
0,0,-8.470588,-0.007843,-0.007843,-0.007843,-1.960784,-1.960784,-1.960784,3
0,0,-8.470588,-0.007843,-0.007843,-0.007843,-1.960784,-1.960784,-1.960784,3
-2.823529,0,-8.470588,-0.007843,-0.007843,-0.007843,-1.960784,-1.960784,-1.960784,3
-2.823529,0,-8.470588,-0.007843,-0.007843,-0.007843,-1.960784,-1.960784,-1.960784,3
-2.823529,0,-8.470588,-0.007843,-0.007843,-0.007843,-1.960784,-1.960784,-1.960784,3
0,0,-8.470588,-0.007843,-0.007843,-0.007843,-1.960784,-1.960784,-1.960784,3
0,0,-8.470588,-0.007843,-0.007843,-0.007843,-1.960784,-1.960784,-1.960784,3
0,0,-8.470588,-0.007843,-0.007843,-0.007843,-1.960784,-1.960784,-1.960784,3
0,0,-8.470588,-0.007843,-0.007843,-0.007843,-1.960784,-1.960784,-1.960784,3
0,0,-8.470588,-0.007843,-0.007843,-0.007843,-1.960784,-1.960784,-1.960784,3
0,0,-8.470588,-0.007843,-0.007843,-0.007843,-1.960784,-1.960784,-1.960784,3
0,0,-8.470588,-0.007843,-0.007843,-0.007843,-1.960784,-1.960784,-1.960784,3
0,0,-8.470588,-0.007843,-0.007843,-0.007843,-1.960784,-1.960784,-1.960784,3
0,0,-8.470588,-0.007843,-0.007843,-0.007843,-1.960784,-1.960784,-1.960784,3
0,0,-8.470588,-0.007843,-0.007843,-0.007843,-1.960784,-1.960784,-1.960784,3
0,0,-8.470588,-0.007843,-0.007843,-0.007843,-1.960784,-1.960784,-1.960784,3
0,0,-8.470588,-0.007843,-0.007843,-0.007843,-1.960784,-1.960784,-1.960784,3
0,0,-8.470588,-0.007843,-0.007843,-0.007843,-1.960784,-1.960784,-1.960784,3
0,0,-8.470588,-0.007843,-0.007843,-0.007843,-1.960784,-1.960784,-1.960784,3
0,0,-8.470588,-0.007843,-0.007843,-0.007843,-1.960784,-1.960784,-1.960784,3
0,0,-8.470588,-0.007843,-0.007843,-0.007843,-1.960784,-1.960784,-1.960784,3
0,0,-8.470588,-0.007843,-0.007843,-0.007843,-1.960784,-1.960784,-1.960784,3
0,0,-8.470588,-0.007843,-0.007843,-0.007843,-1.960784,-1.960784,-1.960784,3
0,0,-8.470588,-0.007843,-0.007843,-0.007843,-1.960784,-1.960784,-1.960784,3
0,0,-8.470588,-0.007843,-0.007843,-0.007843,-1.960784,-1.960784,-1.960784,3
0,0,-8.470588,-0.007843,-0.007843,-0.007843,-1.960784,-1.960784,-1.960784,3
0,0,-8.470588,-0.007843,-0.007843,-0.007843,-1.960784,-1.960784,-1.960784,3
0,0,-8.470588,-0.007843,-0.007843,-0.007843,-1.960784,-1.960784,-1.960784,3
0,0,-8.470588,-0.007843,-0.007843,-0.007843,-1.960784,-1.960784,-1.960784,3
0,0,-8.470588,-0.007843,-0.007843,-0.007843,-1.960784,-1.960784,-1.960784,3
-2.823529,0,-8.470588,-0.007843,-0.007843,-0.007843,-1.960784,-1.960784,-1.960784,3
0,0,-8.470588,-0.007843,-0.007843,-0.007843,-1.960784,-1.960784,-1.960784,3
-2.823529,0,-8.470588,-0.007843,-0.007843,-0.007843,-1.960784,-1.960784,-1.960784,3
-2.823529,0,-8.470588,-0.007843,-0.007843,-0.007843,-1.960784,-1.960784,-1.960784,3
-2.823529,0,-8.470588,-0.007843,-0.007843,-0.007843,-1.960784,-1.960784,-1.960784,3
-2.823529,0,-8.470588,-0.007843,-0.007843,-0.007843,-1.960784,-1.960784,-1.960784,3
-2.823529,0,-8.470588,-0.007843,-0.007843,-0.007843,-1.960784,-1.960784,-1.960784,3
0,0,-8.470588,-0.007843,-0.007843,-0.007843,-1.960784,-1.960784,-1.960784,3
0,0,-8.470588,-0.007843,-0.007843,-0.007843,-1.960784,-1.960784,-1.960784,3
0,0,-8.470588,-0.007843,-0.007843,-0.007843,-1.960784,-1.960784,-1.960784,3
-2.823529,0,-8.470588,-0.007843,-0.007843,-0.007843,-1.960784,-1.960784,-1.960784,3
0,0,-8.470588,-0.007843,-0.007843,-0.007843,-1.960784,-1.960784,-1.960784,3
0,0,-8.470588,-0.007843,-0.007843,-0.007843,-1.960784,-1.960784,-1.960784,3
0,0,-8.470588,-0.007843,-0.007843,-0.007843,-1.960784,-1.960784,-1.960784,3
0,0,-8.470588,-0.007843,-0.007843,-0.007843,-1.960784,-1.960784,-1.960784,3
0,0,-8.470588,-0.007843,-0.007843,-0.007843,-1.960784,-1.960784,-1.960784,3
0,0,-8.470588,-0.007843,-0.007843,-0.007843,-1.960784,-1.960784,-1.960784,3
-2.823529,0,-8.470588,-0.007843,-0.007843,-0.007843,-1.960784,-1.960784,-1.960784,3
0,0,-8.470588,-0.007843,-0.007843,-0.007843,-1.960784,-1.960784,-1.960784,3
0,0,-8.470588,-0.007843,-0.007843,-0.007843,-1.960784,-1.960784,-1.960784,3
0,0,-8.470588,-0.007843,-0.007843,0.007843,-1.960784,-1.960784,-1.960784,3
0,0,-8.470588,-0.007843,-0.007843,-0.007843,-1.960784,-1.960784,-1.960784,3
0,0,-8.470588,-0.007843,-0.007843,-0.007843,-1.960784,-1.960784,-1.960784,3
-2.823529,0,-8.470588,-0.007843,-0.007843,-0.007843,-1.960784,-1.960784,-1.960784,3
-2.823529,0,-8.470588,-0.007843,-0.007843,-0.007843,-1.960784,-1.960784,-1.960784,3
0,0,-8.470588,-0.007843,-0.007843,-0.007843,-1.960784,-1.960784,-1.960784,3
0,0,-8.470588,-0.007843,-0.007843,-0.007843,-1.960784,-1.960784,-1.960784,3
0,0,-8.470588,-0.007843,-0.007843,-0.007843,-1.960784,-1.960784,-1.960784,3
0,0,-8.470588,-0.007843,-0.007843,-0.007843,-1.960784,-1.960784,-1.960784,3
-2.823529,0,-8.470588,-0.007843,-0.007843,-0.007843,-1.960784,-1.960784,-1.960784,3
-2.823529,0,-8.470588,-0.007843,-0.007843,-0.007843,-1.960784,-1.960784,-1.960784,3
0,0,-8.470588,-0.007843,-0.007843,-0.007843,-1.960784,-1.960784,-1.960784,3
0,0,-8.470588,-0.007843,-0.007843,-0.007843,-1.960784,-1.960784,-1.960784,3
0,0,-8.470588,-0.007843,-0.007843,-0.007843,-1.960784,-1.960784,-1.960784,3
0,0,-8.470588,-0.007843,-0.007843,-0.007843,-1.960784,-1.960784,-1.960784,3
0,0,-8.470588,-0.007843,-0.007843,-0.007843,-1.960784,-1.960784,-1.960784,3
-2.823529,0,-8.470588,-0.007843,-0.007843,-0.007843,-1.960784,-1.960784,-1.960784,3
-2.823529,0,-8.470588,-0.007843,-0.007843,-0.007843,-1.960784,-1.960784,-1.960784,3
-2.823529,0,-8.470588,-0.007843,-0.007843,-0.007843,-1.960784,-1.960784,-1.960784,3
-2.823529,0,-8.470588,-0.007843,-0.007843,-0.007843,-1.960784,-1.960784,-1.960784,3
-2.823529,0,-8.470588,-0.007843,-0.007843,-0.007843,-1.960784,-1.960784,-1.960784,3
-2.823529,0,-8.470588,-0.007843,-0.007843,-0.007843,-1.960784,-1.960784,-1.960784,3
-2.823529,0,-8.470588,-0.007843,-0.007843,-0.007843,-1.960784,-1.960784,-1.960784,3
-2.823529,0,-8.470588,-0.007843,-0.007843,-0.007843,-1.960784,-1.960784,-1.960784,3
-2.823529,0,-8.470588,-0.007843,-0.007843,-0.007843,-1.960784,-1.960784,-1.960784,3
-2.823529,0,-8.470588,-0.007843,-0.007843,-0.007843,-1.960784,-1.960784,-1.960784,3
-2.823529,0,-8.470588,-0.007843,-0.007843,-0.007843,-1.960784,-1.960784,-1.960784,3
-2.823529,0,-8.470588,-0.007843,-0.007843,-0.023529,-1.960784,-1.960784,-1.960784,3
-2.823529,0,-8.470588,-0.007843,-0.007843,-0.007843,-1.960784,-1.960784,-1.960784,3
-2.823529,0,-8.470588,-0.007843,-0.007843,-0.007843,-1.960784,-1.960784,-1.960784,3
-2.823529,0,-8.470588,-0.007843,-0.007843,-0.007843,-1.960784,-1.960784,-1.960784,3
-2.823529,0,-8.470588,-0.007843,-0.007843,-0.007843,-1.960784,-1.960784,-1.960784,3
-2.823529,0,-8.470588,-0.007843,-0.007843,-0.007843,-1.960784,-1.960784,-1.960784,3
-2.823529,0,-8.470588,-0.007843,-0.007843,-0.007843,-1.960784,-1.960784,-1.960784,3
-2.823529,0,-8.470588,-0.007843,-0.007843,-0.007843,-1.960784,-1.960784,-1.960784,3
-2.823529,0,-8.470588,-0.007843,-0.007843,-0.007843,-1.960784,-1.960784,-1.960784,3
-2.823529,0,-8.470588,-0.007843,-0.007843,-0.007843,-1.960784,-1.960784,-1.960784,3
-2.823529,0,-8.470588,-0.007843,-0.007843,-0.007843,-1.960784,-1.960784,-1.960784,3
-2.823529,0,-8.470588,-0.007843,-0.007843,-0.007843,-1.960784,-1.960784,-1.960784,3
-2.823529,0,-8.470588,-0.007843,-0.007843,-0.007843,-1.960784,-1.960784,-1.960784,3
-2.823529,0,-8.470588,-0.007843,-0.007843,-0.007843,-1.960784,-1.960784,-1.960784,3
-2.823529,0,-8.470588,-0.007843,-0.007843,-0.007843,-1.960784,-1.960784,-1.960784,3
-2.823529,0,-8.470588,-0.007843,-0.007843,-0.007843,-1.960784,-1.960784,-1.960784,3
-2.823529,0,-8.470588,-0.007843,-0.007843,-0.007843,-1.960784,-1.960784,-1.960784,3
-2.823529,0,-8.470588,-0.007843,-0.007843,-0.007843,-1.960784,-1.960784,-1.960784,3
-2.823529,0,-8.470588,-0.007843,-0.007843,-0.007843,-1.960784,-1.960784,-1.960784,3
-2.823529,0,-8.470588,-0.007843,-0.007843,-0.007843,-1.960784,-1.960784,-1.960784,3
-2.823529,0,-8.470588,-0.007843,-0.007843,-0.007843,-1.960784,-1.960784,-1.960784,3
-2.823529,0,-8.470588,-0.007843,-0.007843,-0.007843,-1.960784,-1.960784,-1.960784,3
-2.823529,0,-8.470588,-0.007843,-0.007843,-0.007843,-1.960784,-1.960784,-1.960784,3
-2.823529,0,-8.470588,-0.007843,-0.007843,-0.007843,-1.960784,-1.960784,-1.960784,3
-2.823529,0,-8.470588,-0.007843,-0.007843,-0.007843,-1.960784,-1.960784,-1.960784,3
-2.823529,0,-8.470588,-0.007843,-0.007843,0.007843,-1.960784,-1.960784,-1.960784,3
-2.823529,0,-8.470588,-0.007843,-0.007843,-0.007843,-1.960784,-1.960784,-1.960784,3
-2.823529,0,-8.470588,-0.007843,-0.007843,-0.007843,-1.960784,-1.960784,-1.960784,3
-2.823529,0,-8.470588,-0.007843,-0.007843,-0.007843,-1.960784,-1.960784,-1.960784,3
-2.823529,0,-8.470588,-0.007843,-0.007843,-0.007843,-1.960784,-1.960784,-1.960784,3
-2.823529,0,-8.470588,-0.007843,-0.007843,-0.007843,-1.960784,-1.960784,-1.960784,3
-2.823529,0,-8.470588,-0.007843,-0.007843,-0.007843,-1.960784,-1.960784,-1.960784,3
-2.823529,0,-8.470588,-0.007843,-0.007843,-0.007843,-1.960784,-1.960784,-1.960784,3
-2.823529,0,-8.470588,-0.007843,-0.007843,-0.007843,-1.960784,-1.960784,-1.960784,3
-2.823529,0,-8.470588,-0.007843,-0.007843,-0.007843,-1.960784,-1.960784,-1.960784,3
-2.823529,0,-8.470588,-0.007843,-0.007843,-0.007843,-1.960784,-1.960784,-1.960784,3
-2.823529,0,-8.470588,-0.007843,-0.007843,-0.007843,-1.960784,-1.960784,-1.960784,3
-2.823529,0,-8.470588,-0.007843,-0.007843,-0.007843,-1.960784,-1.960784,-1.960784,3
-2.823529,0,-8.470588,-0.007843,-0.007843,-0.007843,-1.960784,-1.960784,-1.960784,3
-2.823529,0,-8.470588,-0.007843,-0.007843,-0.007843,-1.960784,-1.960784,-1.960784,3
-2.823529,0,-8.470588,-0.007843,-0.007843,-0.007843,-1.960784,-1.960784,-1.960784,3
-2.823529,0,-8.470588,-0.007843,-0.007843,-0.007843,-1.960784,-1.960784,-1.960784,3
-2.823529,0,-8.470588,-0.007843,-0.007843,-0.007843,-1.960784,-1.960784,-1.960784,3
-2.823529,0,-8.470588,-0.007843,-0.007843,-0.007843,-1.960784,-1.960784,-1.960784,3
-2.823529,0,-8.470588,-0.007843,-0.007843,-0.007843,-1.960784,-1.960784,-1.960784,3
-2.823529,0,-8.470588,-0.007843,-0.007843,-0.007843,-1.960784,-1.960784,-1.960784,3
-2.823529,0,-8.470588,-0.007843,-0.007843,-0.007843,-1.960784,-1.960784,-1.960784,3
-2.823529,0,-8.470588,-0.007843,-0.007843,-0.007843,-1.960784,-1.960784,-1.960784,3
-2.823529,0,-8.470588,-0.007843,-0.007843,-0.007843,-1.960784,-1.960784,-1.960784,3
-2.823529,0,-8.470588,-0.007843,-0.007843,-0.007843,-1.960784,-1.960784,-1.960784,3
-2.823529,0,-8.470588,-0.007843,-0.007843,-0.007843,-1.960784,-1.960784,-1.960784,3
-2.823529,0,-8.470588,-0.007843,-0.007843,-0.007843,-1.960784,-1.960784,-1.960784,3
-2.823529,0,-8.470588,-0.007843,-0.007843,-0.007843,-1.960784,-1.960784,-1.960784,3
-2.823529,0,-8.470588,-0.007843,-0.007843,-0.007843,-1.960784,-1.960784,-1.960784,3
-2.823529,0,-8.470588,-0.007843,-0.007843,-0.007843,-1.960784,-1.960784,-1.960784,3
-2.823529,0,-8.470588,-0.007843,-0.007843,-0.007843,-1.960784,-1.960784,-1.960784,3
-2.823529,0,-8.470588,-0.007843,-0.007843,-0.007843,-1.960784,-1.960784,-1.960784,3
-2.823529,0,-8.470588,-0.007843,-0.007843,-0.007843,-1.960784,-1.960784,-1.960784,3
-2.823529,0,-8.470588,-0.007843,-0.007843,-0.007843,-1.960784,-1.960784,-1.960784,3
-2.823529,0,-8.470588,-0.007843,-0.007843,-0.007843,-1.960784,-1.960784,-1.960784,3
-2.823529,0,-8.470588,-0.007843,-0.007843,-0.007843,-1.960784,-1.960784,-1.960784,3
-2.823529,0,-8.470588,-0.007843,-0.007843,-0.007843,-1.960784,-1.960784,-1.960784,3
-2.823529,0,-8.470588,-0.007843,-0.007843,-0.007843,-1.960784,-1.960784,-1.960784,3
-2.823529,0,-8.470588,-0.007843,-0.007843,-0.007843,-1.960784,-1.960784,-1.960784,3
-2.823529,0,-8.470588,-0.007843,-0.007843,-0.007843,-1.960784,-1.960784,-1.960784,3
-2.823529,0,-8.470588,-0.007843,-0.007843,-0.007843,-1.960784,-1.960784,-1.960784,3
-2.823529,0,-8.470588,-0.007843,-0.007843,-0.007843,-1.960784,-1.960784,-1.960784,3
-2.823529,0,-8.470588,-0.007843,-0.007843,-0.007843,-1.960784,-1.960784,-1.960784,3
-2.823529,0,-8.470588,-0.007843,-0.007843,-0.007843,-1.960784,-1.960784,-1.960784,3
-2.823529,0,-8.470588,-0.007843,-0.007843,-0.007843,-1.960784,-1.960784,-1.960784,3
-2.823529,0,-8.470588,-0.007843,-0.007843,-0.007843,-1.960784,-1.960784,-1.960784,3
-2.823529,0,-8.470588,-0.007843,-0.007843,-0.007843,-1.960784,-1.960784,-1.960784,3
-2.823529,0,-8.470588,-0.007843,-0.007843,-0.007843,-1.960784,-1.960784,-1.960784,3
-2.823529,0,-8.470588,-0.007843,-0.007843,-0.007843,-1.960784,-1.960784,-1.960784,3
-2.823529,0,-8.470588,-0.007843,-0.007843,-0.007843,-1.960784,-1.960784,-1.960784,3
-2.823529,0,-8.470588,-0.007843,-0.007843,-0.007843,-1.960784,-1.960784,-1.960784,3
-2.823529,0,-8.470588,-0.007843,-0.007843,-0.007843,-1.960784,-1.960784,-1.960784,3
-2.823529,0,-8.470588,-0.007843,-0.007843,-0.007843,-1.960784,-1.960784,-1.960784,3
-2.823529,0,-8.470588,-0.007843,-0.007843,-0.007843,-1.960784,-1.960784,-1.960784,3
-2.823529,0,-8.470588,-0.007843,-0.007843,-0.007843,-1.960784,-1.960784,-1.960784,3
-2.823529,0,-8.470588,-0.007843,-0.007843,-0.007843,-1.960784,-1.960784,-1.960784,3
-2.823529,0,-8.470588,-0.007843,-0.007843,-0.007843,-1.960784,-1.960784,-1.960784,3
-2.823529,0,-8.470588,-0.007843,-0.007843,-0.007843,-1.960784,-1.960784,-1.960784,3
-2.823529,0,-8.470588,-0.007843,-0.007843,-0.007843,-1.960784,-1.960784,-1.960784,3
-2.823529,0,-8.470588,-0.007843,-0.007843,-0.007843,-1.960784,-1.960784,-1.960784,3
-2.823529,0,-8.470588,-0.007843,-0.007843,-0.007843,-1.960784,-1.960784,-1.960784,3
-2.823529,0,-8.470588,-0.007843,-0.007843,-0.007843,-1.960784,-1.960784,-1.960784,3
-2.823529,0,-8.470588,-0.007843,-0.007843,-0.007843,-1.960784,-1.960784,-1.960784,3
-2.823529,0,-8.470588,-0.007843,-0.007843,-0.007843,-1.960784,-1.960784,-1.960784,3
-2.823529,0,-8.470588,-0.007843,-0.007843,-0.007843,-1.960784,-1.960784,-1.960784,3
-2.823529,0,-8.470588,-0.007843,-0.007843,-0.007843,-1.960784,-1.960784,-1.960784,3
-2.823529,0,-8.470588,-0.007843,-0.007843,-0.007843,-1.960784,-1.960784,-1.960784,3
-2.823529,0,-8.470588,-0.007843,-0.007843,-0.007843,-1.960784,-1.960784,-1.960784,3
-2.823529,0,-8.470588,-0.007843,-0.007843,-0.007843,-1.960784,-1.960784,-1.960784,3
-2.823529,0,-8.470588,-0.007843,-0.007843,-0.007843,-1.960784,-1.960784,-1.960784,3
-2.823529,0,-8.470588,-0.007843,-0.007843,-0.007843,-1.960784,-1.960784,-1.960784,3
-2.823529,0,-8.470588,-0.007843,-0.007843,-0.007843,-1.960784,-1.960784,-1.960784,3
-2.823529,0,-8.470588,-0.007843,-0.007843,-0.007843,-1.960784,-1.960784,-1.960784,3
-2.823529,0,-8.470588,-0.007843,-0.007843,-0.007843,-1.960784,-1.960784,-1.960784,3
-2.823529,0,-8.470588,-0.007843,-0.007843,-0.007843,-1.960784,-1.960784,-1.960784,3
-2.823529,0,-8.470588,-0.007843,-0.007843,-0.007843,-1.960784,-1.960784,-1.960784,3
-2.823529,0,-8.470588,-0.007843,-0.007843,-0.007843,-1.960784,-1.960784,-1.960784,3
-2.823529,0,-8.470588,-0.007843,-0.007843,-0.007843,-1.960784,-1.960784,-1.960784,3
-2.823529,0,-8.470588,-0.007843,-0.007843,-0.007843,-1.960784,-1.960784,-1.960784,3
0,0,-8.470588,-0.007843,-0.007843,-0.007843,-1.960784,-1.960784,-1.960784,3
0,0,-8.470588,-0.007843,-0.007843,-0.007843,-1.960784,-1.960784,-1.960784,3
0,0,-8.470588,-0.007843,-0.007843,-0.007843,-1.960784,-1.960784,-1.960784,3
0,0,-8.470588,-0.007843,-0.007843,-0.007843,-1.960784,-1.960784,-1.960784,3
0,0,-8.470588,-0.007843,-0.007843,-0.007843,-1.960784,-1.960784,-1.960784,3
0,0,-8.470588,-0.007843,-0.007843,-0.007843,-1.960784,-1.960784,-1.960784,3
0,0,-8.470588,-0.007843,-0.007843,-0.007843,-1.960784,-1.960784,-1.960784,3
0,0,-8.470588,-0.007843,-0.007843,-0.007843,-1.960784,-1.960784,-1.960784,3
-2.823529,0,-8.470588,-0.007843,-0.007843,-0.007843,-1.960784,-1.960784,-1.960784,3
0,0,-8.470588,-0.007843,-0.007843,-0.007843,-1.960784,-1.960784,-1.960784,3
-2.823529,0,-8.470588,-0.007843,-0.007843,-0.007843,-1.960784,-1.960784,-1.960784,3
-2.823529,0,-8.470588,-0.007843,-0.007843,-0.007843,-1.960784,-1.960784,-1.960784,3
-2.823529,0,-8.470588,-0.007843,-0.007843,-0.007843,-1.960784,-1.960784,-1.960784,3
-2.823529,0,-8.470588,-0.007843,-0.007843,-0.007843,-1.960784,-1.960784,-1.960784,3
-2.823529,0,-8.470588,-0.007843,-0.007843,-0.007843,-1.960784,-1.960784,-1.960784,3
-2.823529,0,-8.470588,-0.007843,-0.007843,-0.007843,-1.960784,-1.960784,-1.960784,3
0,0,-8.470588,-0.007843,-0.007843,-0.007843,-1.960784,-1.960784,-1.960784,3
0,0,-8.470588,-0.007843,-0.007843,-0.007843,-1.960784,-1.960784,-1.960784,3
0,0,-8.470588,-0.007843,-0.007843,-0.007843,-1.960784,-1.960784,-1.960784,3
0,0,-8.470588,-0.007843,-0.007843,-0.007843,-1.960784,-1.960784,-1.960784,3
0,0,-8.470588,-0.007843,-0.007843,-0.007843,-1.960784,-1.960784,-1.960784,3
0,0,-8.470588,-0.007843,-0.007843,-0.007843,-1.960784,-1.960784,-1.960784,3
0,0,-8.470588,-0.007843,-0.007843,-0.007843,-1.960784,-1.960784,-1.960784,3
0,0,-8.470588,-0.007843,-0.007843,-0.007843,-1.960784,-1.960784,-1.960784,3
0,0,-8.470588,-0.007843,-0.007843,-0.007843,-1.960784,-1.960784,-1.960784,3
0,0,-8.470588,-0.007843,-0.007843,-0.007843,-1.960784,-1.960784,-1.960784,3
0,0,-8.470588,-0.007843,-0.007843,-0.007843,-1.960784,-1.960784,-1.960784,3
0,0,-8.470588,-0.007843,-0.007843,-0.007843,-1.960784,-1.960784,-1.960784,3
0,0,-8.470588,-0.007843,-0.007843,-0.007843,-1.960784,-1.960784,-1.960784,3
0,0,-8.470588,-0.007843,-0.007843,-0.007843,-1.960784,-1.960784,-1.960784,3
0,0,-8.470588,-0.007843,-0.007843,-0.007843,-1.960784,-1.960784,-1.960784,3
0,0,-8.470588,-0.007843,-0.007843,-0.007843,-1.960784,-1.960784,-1.960784,3
0,0,-8.470588,-0.007843,-0.007843,-0.007843,-1.960784,-1.960784,-1.960784,3
0,0,-8.470588,-0.007843,-0.007843,-0.007843,-1.960784,-1.960784,-1.960784,3
0,0,-8.470588,-0.007843,-0.007843,-0.007843,-1.960784,-1.960784,-1.960784,3
0,0,-8.470588,-0.007843,-0.007843,-0.007843,-1.960784,-1.960784,-1.960784,3
0,0,-8.470588,-0.007843,-0.007843,-0.007843,-1.960784,-1.960784,-1.960784,3
0,0,-8.470588,-0.007843,-0.007843,-0.007843,-1.960784,-1.960784,-1.960784,3
0,0,-8.470588,-0.007843,-0.007843,-0.007843,-1.960784,-1.960784,-1.960784,3
0,0,-8.470588,-0.007843,-0.007843,-0.007843,-1.960784,-1.960784,-1.960784,3
0,0,-8.470588,-0.039216,0.007843,0.007843,-1.960784,-1.960784,-1.960784,3
0,0,-8.470588,0.007843,-0.007843,-0.023529,-1.960784,-1.960784,-1.960784,3
0,0,-8.470588,-0.023529,-0.007843,-0.007843,-1.960784,-1.960784,-1.960784,3
0,0,-8.470588,-0.007843,-0.007843,-0.007843,-1.960784,-1.960784,-1.960784,3
0,0,-8.470588,-0.007843,-0.007843,-0.007843,-1.960784,-1.960784,-1.960784,3
0,0,-8.470588,-0.007843,-0.007843,-0.007843,-1.960784,-1.960784,-1.960784,3
0,0,-8.470588,-0.007843,-0.007843,-0.007843,-1.960784,-1.960784,-1.960784,3
0,0,-8.470588,-0.007843,-0.007843,-0.007843,-1.960784,-1.960784,-1.960784,3
0,0,-8.470588,-0.007843,-0.007843,0.007843,-1.960784,-1.960784,-1.960784,3
0,0,-8.470588,-0.007843,-0.007843,-0.007843,-1.960784,-1.960784,-1.960784,3
0,0,-8.470588,-0.007843,-0.007843,-0.007843,-1.960784,-1.960784,-1.960784,3
0,0,-8.470588,-0.007843,-0.007843,-0.007843,-1.960784,-1.960784,-1.960784,3
0,0,-8.470588,-0.007843,-0.007843,-0.007843,-1.960784,-1.960784,-1.960784,3
0,0,-8.470588,-0.007843,-0.007843,-0.007843,-1.960784,-1.960784,-1.960784,3
0,0,-8.470588,-0.007843,-0.007843,-0.007843,-1.960784,-1.960784,-1.960784,3
0,0,-8.470588,-0.007843,-0.007843,-0.007843,-1.960784,-1.960784,-1.960784,3
0,0,-8.470588,-0.007843,-0.007843,-0.007843,-1.960784,-1.960784,-1.960784,3
0,0,-8.470588,-0.007843,-0.007843,-0.007843,-1.960784,-1.960784,-1.960784,3
0,0,-8.470588,-0.007843,-0.007843,-0.007843,-1.960784,-1.960784,-1.960784,3
0,0,-8.470588,-0.007843,-0.007843,-0.007843,-1.960784,-1.960784,-1.960784,3
0,0,-8.470588,-0.007843,-0.007843,-0.007843,-1.960784,-1.960784,-1.960784,3
0,0,-8.470588,-0.007843,-0.007843,-0.007843,-1.960784,-1.960784,-1.960784,3
0,0,-8.470588,-0.007843,-0.007843,-0.007843,-1.960784,-1.960784,-1.960784,3
0,0,-8.470588,-0.007843,-0.007843,-0.007843,-1.960784,-1.960784,-1.960784,3
0,0,-8.470588,-0.007843,-0.007843,-0.007843,-1.960784,-1.960784,-1.960784,3
0,0,-8.470588,-0.007843,-0.007843,-0.007843,-1.960784,-1.960784,-1.960784,3
0,0,-8.470588,-0.007843,-0.007843,-0.007843,-1.960784,-1.960784,-1.960784,3
0,0,-8.470588,-0.007843,-0.007843,-0.007843,-1.960784,-1.960784,-1.960784,3
0,0,-8.470588,-0.007843,-0.007843,-0.007843,-1.960784,-1.960784,-1.960784,3
0,0,-8.470588,-0.007843,-0.007843,-0.007843,-1.960784,-1.960784,-1.960784,3
0,0,-8.470588,-0.007843,-0.007843,-0.007843,-1.960784,-1.960784,-1.960784,3
0,0,-8.470588,-0.007843,-0.007843,-0.007843,-1.960784,-1.960784,-1.960784,3
0,0,-8.470588,-0.007843,-0.007843,-0.007843,-1.960784,-1.960784,-1.960784,3
0,0,-8.470588,-0.007843,-0.007843,-0.007843,-1.960784,-1.960784,-1.960784,3
0,0,-8.470588,-0.007843,-0.007843,-0.007843,-1.960784,-1.960784,-1.960784,3
0,0,-8.470588,-0.007843,-0.007843,-0.007843,-1.960784,-1.960784,-1.960784,3
0,0,-8.470588,-0.007843,-0.007843,-0.007843,-1.960784,-1.960784,-1.960784,3
0,0,-8.470588,-0.007843,-0.007843,-0.007843,-1.960784,-1.960784,-1.960784,3
0,0,-8.470588,-0.007843,-0.007843,0.007843,-1.960784,-1.960784,-1.960784,3
0,0,-8.470588,-0.007843,-0.007843,-0.007843,-1.960784,-1.960784,-1.960784,3
0,0,-8.470588,-0.007843,-0.007843,-0.007843,-1.960784,-1.960784,-1.960784,3
0,0,-8.470588,-0.007843,-0.007843,-0.007843,-1.960784,-1.960784,-1.960784,3
0,0,-8.470588,-0.007843,-0.007843,-0.007843,-1.960784,-1.960784,-1.960784,3
0,0,-8.470588,-0.007843,-0.007843,-0.007843,-1.960784,-1.960784,-1.960784,3
0,0,-8.470588,-0.007843,-0.007843,-0.007843,-1.960784,-1.960784,-1.960784,3
0,0,-8.470588,-0.007843,-0.007843,-0.007843,-1.960784,-1.960784,-1.960784,3
0,0,-8.470588,-0.007843,-0.007843,-0.007843,-1.960784,-1.960784,-1.960784,3
0,0,-8.470588,-0.007843,-0.007843,-0.007843,-1.960784,-1.960784,-1.960784,3
0,0,-8.470588,-0.007843,-0.007843,-0.007843,-1.960784,-1.960784,-1.960784,3
0,0,-8.470588,-0.007843,-0.007843,-0.007843,-1.960784,-1.960784,-1.960784,3
0,0,-8.470588,-0.007843,-0.007843,-0.007843,-1.960784,-1.960784,-1.960784,3
0,0,-8.470588,-0.007843,-0.007843,-0.007843,-1.960784,-1.960784,-1.960784,3
0,0,-8.470588,-0.007843,-0.007843,-0.007843,-1.960784,-1.960784,-1.960784,3
0,0,-8.470588,-0.007843,-0.007843,-0.007843,-1.960784,-1.960784,-1.960784,3
0,0,-8.470588,-0.007843,-0.007843,-0.007843,-1.960784,-1.960784,-1.960784,3
0,0,-8.470588,-0.007843,-0.007843,-0.007843,-1.960784,-1.960784,-1.960784,3
0,0,-8.470588,-0.007843,-0.007843,-0.007843,-1.960784,-1.960784,-1.960784,3
0,0,-8.470588,-0.007843,-0.007843,0.007843,-1.960784,-1.960784,-1.960784,3
0,0,-8.470588,-0.007843,-0.007843,-0.007843,-1.960784,-1.960784,-1.960784,3
0,0,-8.470588,-0.007843,-0.007843,-0.007843,-1.960784,-1.960784,-1.960784,3
0,0,-8.470588,-0.007843,-0.007843,-0.007843,-1.960784,-1.960784,-1.960784,3
0,0,-8.470588,-0.007843,-0.007843,-0.007843,-1.960784,-1.960784,-1.960784,3
0,0,-8.470588,-0.007843,-0.007843,0.007843,-1.960784,-1.960784,-1.960784,3
0,0,-8.470588,-0.007843,-0.007843,-0.007843,-1.960784,-1.960784,-1.960784,3
0,0,-8.470588,-0.007843,-0.007843,-0.007843,-1.960784,-1.960784,-1.960784,3
0,0,-8.470588,-0.007843,-0.007843,-0.007843,-1.960784,-1.960784,-1.960784,3
0,0,-8.470588,-0.007843,-0.007843,-0.007843,-1.960784,-1.960784,-1.960784,3
0,0,-8.470588,-0.007843,-0.007843,-0.007843,-1.960784,-1.960784,-1.960784,3
0,0,-8.470588,-0.007843,-0.007843,-0.007843,-1.960784,-1.960784,-1.960784,3
0,0,-8.470588,-0.007843,-0.007843,-0.007843,-1.960784,-1.960784,-1.960784,3
0,0,-8.470588,-0.007843,-0.007843,-0.007843,-1.960784,-1.960784,-1.960784,3
0,0,-8.470588,-0.007843,-0.007843,-0.007843,-1.960784,-1.960784,-1.960784,3
0,0,-8.470588,-0.007843,-0.007843,-0.007843,-1.960784,-1.960784,-1.960784,3
0,0,-8.470588,-0.007843,-0.007843,-0.007843,-1.960784,-1.960784,-1.960784,3
0,0,-8.470588,-0.007843,-0.007843,-0.007843,-1.960784,-1.960784,-1.960784,3
0,0,-8.470588,-0.007843,-0.007843,-0.007843,-1.960784,-1.960784,-1.960784,3
0,0,-8.470588,-0.007843,-0.007843,-0.007843,-1.960784,-1.960784,-1.960784,3
0,0,-8.470588,-0.007843,-0.007843,-0.007843,-1.960784,-1.960784,-1.960784,3
0,0,-8.470588,-0.007843,-0.007843,-0.007843,-1.960784,-1.960784,-1.960784,3
0,0,-8.470588,-0.007843,-0.007843,-0.007843,-1.960784,-1.960784,-1.960784,3
0,0,-8.470588,-0.007843,-0.007843,-0.007843,-1.960784,-1.960784,-1.960784,3
0,0,-8.470588,-0.007843,-0.007843,-0.007843,-1.960784,-1.960784,-1.960784,3
0,0,-8.470588,-0.007843,-0.007843,-0.007843,-1.960784,-1.960784,-1.960784,3
0,0,-8.470588,-0.007843,-0.007843,-0.007843,-1.960784,-1.960784,-1.960784,3
0,0,-8.470588,-0.007843,-0.007843,-0.007843,-1.960784,-1.960784,-1.960784,3
0,0,-8.470588,-0.007843,-0.007843,-0.007843,-1.960784,-1.960784,-1.960784,3
0,0,-8.470588,-0.007843,-0.007843,-0.007843,-1.960784,-1.960784,-1.960784,3
0,0,-8.470588,-0.007843,-0.007843,-0.007843,-1.960784,-1.960784,-1.960784,3
0,0,-8.470588,-0.007843,-0.007843,-0.007843,-1.960784,-1.960784,-1.960784,3
0,0,-8.470588,-0.007843,-0.007843,-0.007843,-1.960784,-1.960784,-1.960784,3
0,0,-8.470588,-0.007843,-0.007843,-0.007843,-1.960784,-1.960784,-1.960784,3
0,0,-8.470588,-0.007843,-0.007843,-0.007843,-1.960784,-1.960784,-1.960784,3
0,0,-8.470588,-0.007843,-0.007843,-0.007843,-1.960784,-1.960784,-1.960784,3
0,0,-8.470588,-0.007843,-0.007843,-0.007843,-1.960784,-1.960784,-1.960784,3
0,0,-8.470588,-0.007843,-0.007843,-0.007843,-1.960784,-1.960784,-1.960784,3
0,0,-8.470588,-0.007843,-0.007843,-0.007843,-1.960784,-1.960784,-1.960784,3
0,0,-8.470588,-0.007843,-0.007843,-0.007843,-1.960784,-1.960784,-1.960784,3
0,0,-8.470588,-0.007843,-0.007843,-0.007843,-1.960784,-1.960784,-1.960784,3
0,0,-8.470588,-0.007843,-0.007843,-0.007843,-1.960784,-1.960784,-1.960784,3
0,0,-8.470588,-0.007843,-0.007843,-0.007843,-1.960784,-1.960784,-1.960784,3
0,0,-8.470588,-0.007843,-0.007843,-0.007843,-1.960784,-1.960784,-1.960784,3
0,0,-8.470588,-0.007843,-0.007843,-0.007843,-1.960784,-1.960784,-1.960784,3
0,0,-8.470588,-0.007843,-0.007843,-0.007843,-1.960784,-1.960784,-1.960784,3
0,0,-8.470588,-0.007843,-0.007843,-0.007843,-1.960784,-1.960784,-1.960784,3
0,0,-8.470588,-0.007843,-0.007843,-0.007843,-1.960784,-1.960784,-1.960784,3
0,0,-8.470588,-0.007843,-0.007843,-0.007843,-1.960784,-1.960784,-1.960784,3
0,0,-8.470588,-0.007843,-0.007843,-0.007843,-1.960784,-1.960784,-1.960784,3
0,0,-8.470588,-0.007843,-0.007843,-0.007843,-1.960784,-1.960784,-1.960784,3
0,0,-8.470588,-0.007843,-0.007843,-0.007843,-1.960784,-1.960784,-1.960784,3
0,0,-8.470588,-0.007843,-0.007843,-0.007843,-1.960784,-1.960784,-1.960784,3
0,0,-8.470588,-0.007843,-0.007843,-0.007843,-1.960784,-1.960784,-1.960784,3
0,0,-8.470588,-0.007843,-0.007843,-0.007843,-1.960784,-1.960784,-1.960784,3
0,0,-8.470588,-0.007843,-0.007843,-0.007843,-1.960784,-1.960784,-1.960784,3
0,0,-8.470588,-0.007843,-0.007843,-0.007843,-1.960784,-1.960784,-1.960784,3
0,0,-8.470588,-0.007843,-0.007843,0.007843,-1.960784,-1.960784,-1.960784,3
0,0,-8.470588,-0.007843,-0.007843,-0.007843,-1.960784,-1.960784,-1.960784,3
0,0,-8.470588,-0.007843,-0.007843,-0.007843,-1.960784,-1.960784,-1.960784,3
0,0,-8.470588,-0.007843,-0.007843,-0.007843,-1.960784,-1.960784,-1.960784,3
0,0,-8.470588,-0.007843,-0.007843,-0.007843,-1.960784,-1.960784,-1.960784,3
0,0,-8.470588,-0.007843,-0.007843,-0.007843,-1.960784,-1.960784,-1.960784,3
0,0,-8.470588,-0.007843,-0.007843,-0.007843,-1.960784,-1.960784,-1.960784,3
0,0,-8.470588,-0.007843,-0.007843,-0.007843,-1.960784,-1.960784,-1.960784,3
0,0,-8.470588,-0.007843,-0.007843,-0.007843,-1.960784,-1.960784,-1.960784,3
0,0,-8.470588,-0.007843,-0.007843,-0.007843,-1.960784,-1.960784,-1.960784,3
0,0,-8.470588,-0.007843,-0.007843,-0.007843,-1.960784,-1.960784,-1.960784,3
0,0,-8.470588,-0.007843,-0.007843,-0.007843,-1.960784,-1.960784,-1.960784,3
0,0,-8.470588,-0.007843,-0.007843,-0.007843,-1.960784,-1.960784,-1.960784,3
0,0,-8.470588,-0.007843,-0.007843,-0.007843,-1.960784,-1.960784,-1.960784,3
0,0,-8.470588,-0.007843,-0.007843,-0.007843,-1.960784,-1.960784,-1.960784,3
0,0,-8.470588,-0.007843,-0.007843,-0.023529,-1.960784,-1.960784,-1.960784,3
0,0,-8.470588,-0.007843,-0.007843,-0.007843,-1.960784,-1.960784,-1.960784,3
0,0,-8.470588,-0.007843,-0.007843,-0.007843,-1.960784,-1.960784,-1.960784,3
0,0,-8.470588,-0.007843,-0.007843,-0.007843,-1.960784,-1.960784,-1.960784,3
0,0,-8.470588,-0.007843,-0.007843,0.007843,-1.960784,-1.960784,-1.960784,3
0,0,-8.470588,-0.007843,-0.007843,-0.007843,-1.960784,-1.960784,-1.960784,3
0,0,-8.470588,-0.007843,-0.007843,-0.007843,-1.960784,-1.960784,-1.960784,3
0,0,-8.470588,-0.007843,-0.007843,-0.007843,-1.960784,-1.960784,-1.960784,3
0,0,-8.470588,-0.007843,-0.007843,-0.007843,-1.960784,-1.960784,-1.960784,3
0,0,-8.470588,-0.007843,-0.007843,-0.007843,-1.960784,-1.960784,-1.960784,3
0,0,-8.470588,-0.007843,-0.007843,-0.007843,-1.960784,-1.960784,-1.960784,3
0,0,-8.470588,-0.007843,-0.007843,-0.007843,-1.960784,-1.960784,-1.960784,3
0,0,-8.470588,-0.007843,-0.007843,-0.007843,-1.960784,-1.960784,-1.960784,3
0,0,-8.470588,-0.007843,-0.007843,-0.007843,-1.960784,-1.960784,-1.960784,3
0,0,-8.470588,-0.007843,-0.007843,-0.007843,-1.960784,-1.960784,-1.960784,3
0,0,-8.470588,-0.007843,-0.007843,-0.007843,-1.960784,-1.960784,-1.960784,3
0,0,-8.470588,-0.007843,-0.007843,-0.007843,-1.960784,-1.960784,-1.960784,3
0,0,-8.470588,-0.007843,-0.007843,-0.007843,-1.960784,-1.960784,-1.960784,3
0,0,-8.470588,-0.007843,-0.007843,-0.007843,-1.960784,-1.960784,-1.960784,3
0,0,-8.470588,-0.007843,-0.007843,-0.007843,-1.960784,-1.960784,-1.960784,3
0,0,-8.470588,-0.007843,-0.007843,-0.007843,-1.960784,-1.960784,-1.960784,3
0,0,-8.470588,-0.007843,-0.007843,-0.007843,-1.960784,-1.960784,-1.960784,3
0,0,-8.470588,-0.007843,-0.007843,-0.007843,-1.960784,-1.960784,-1.960784,3
0,0,-8.470588,-0.007843,-0.007843,-0.007843,-1.960784,-1.960784,-1.960784,3
0,0,-8.470588,-0.007843,-0.007843,-0.007843,-1.960784,-1.960784,-1.960784,3
0,0,-8.470588,-0.007843,-0.007843,0.007843,-1.960784,-1.960784,-1.960784,3
0,0,-8.470588,-0.007843,-0.007843,-0.007843,-1.960784,-1.960784,-1.960784,3
0,0,-8.470588,-0.007843,-0.007843,-0.007843,-1.960784,-1.960784,-1.960784,3
0,0,-8.470588,-0.007843,-0.007843,-0.007843,-1.960784,-1.960784,-1.960784,3
0,0,-8.470588,-0.007843,-0.007843,-0.007843,-1.960784,-1.960784,-1.960784,3
0,0,-8.470588,-0.007843,-0.007843,-0.007843,-1.960784,-1.960784,-1.960784,3
0,0,-8.470588,-0.007843,-0.007843,-0.007843,-1.960784,-1.960784,-1.960784,3
0,0,-8.470588,-0.007843,-0.007843,-0.007843,-1.960784,-1.960784,-1.960784,3
0,0,-8.470588,-0.007843,-0.007843,-0.007843,-1.960784,-1.960784,-1.960784,3
0,0,-8.470588,-0.007843,-0.007843,-0.007843,-1.960784,-1.960784,-1.960784,3
0,0,-8.470588,-0.007843,-0.007843,-0.007843,-1.960784,-1.960784,-1.960784,3
0,0,-8.470588,-0.007843,-0.007843,-0.007843,-1.960784,-1.960784,-1.960784,3
0,0,-8.470588,-0.007843,-0.007843,-0.007843,-1.960784,-1.960784,-1.960784,3
0,0,-8.470588,-0.007843,-0.007843,-0.007843,-1.960784,-1.960784,-1.960784,3
0,0,-8.470588,-0.007843,-0.007843,-0.007843,-1.960784,-1.960784,-1.960784,3
0,0,-8.470588,-0.007843,-0.007843,-0.007843,-1.960784,-1.960784,-1.960784,3
0,0,-8.470588,-0.007843,-0.007843,-0.007843,-1.960784,-1.960784,-1.960784,3
0,0,-8.470588,-0.007843,-0.007843,-0.023529,-1.960784,-1.960784,-1.960784,3
0,0,-8.470588,-0.007843,-0.007843,-0.007843,-1.960784,-1.960784,-1.960784,3
0,0,-8.470588,-0.007843,-0.007843,-0.007843,-1.960784,-1.960784,-1.960784,3
0,0,-8.470588,-0.007843,-0.007843,-0.007843,-1.960784,-1.960784,-1.960784,3
0,0,-8.470588,-0.007843,-0.007843,-0.007843,-1.960784,-1.960784,-1.960784,3
0,0,-8.470588,-0.007843,-0.007843,-0.007843,-1.960784,-1.960784,-1.960784,3
0,0,-8.470588,-0.007843,-0.007843,-0.007843,-1.960784,-1.960784,-1.960784,3
0,0,-8.470588,-0.007843,-0.007843,-0.007843,-1.960784,-1.960784,-1.960784,3
0,0,-8.470588,-0.007843,-0.007843,-0.007843,-1.960784,-1.960784,-1.960784,3
0,0,-8.470588,-0.007843,-0.007843,-0.007843,-1.960784,-1.960784,-1.960784,3
0,0,-8.470588,-0.007843,-0.007843,-0.007843,-1.960784,-1.960784,-1.960784,3
-2.823529,0,-8.470588,-0.007843,-0.007843,-0.007843,-1.960784,-1.960784,-1.960784,3
-2.823529,0,-8.470588,-0.007843,-0.007843,-0.007843,-1.960784,-1.960784,-1.960784,3
-2.823529,0,-8.470588,-0.007843,-0.007843,-0.007843,-1.960784,-1.960784,-1.960784,3
0,0,-8.470588,-0.007843,-0.007843,-0.007843,-1.960784,-1.960784,-1.960784,3
-2.823529,0,-8.470588,-0.007843,-0.007843,-0.007843,-1.960784,-1.960784,-1.960784,3
-2.823529,0,-8.470588,-0.007843,-0.007843,-0.007843,-1.960784,-1.960784,-1.960784,3
-2.823529,0,-8.470588,-0.007843,-0.007843,-0.007843,-1.960784,-1.960784,-1.960784,3
0,0,-8.470588,-0.007843,-0.007843,-0.007843,-1.960784,-1.960784,-1.960784,3
0,0,-8.470588,-0.007843,-0.007843,-0.007843,-1.960784,-1.960784,-1.960784,3
0,0,-8.470588,-0.007843,-0.007843,-0.007843,-1.960784,-1.960784,-1.960784,3
0,0,-8.470588,-0.007843,-0.007843,-0.007843,-1.960784,-1.960784,-1.960784,3
0,0,-8.470588,-0.007843,-0.007843,-0.007843,-1.960784,-1.960784,-1.960784,3
0,0,-8.470588,-0.007843,-0.007843,-0.007843,-1.960784,-1.960784,-1.960784,3
0,0,-8.470588,-0.007843,-0.007843,-0.007843,-1.960784,-1.960784,-1.960784,3
0,0,-8.470588,-0.007843,-0.007843,0.007843,-1.960784,-1.960784,-1.960784,3
0,0,-8.470588,-0.007843,-0.007843,-0.007843,-1.960784,-1.960784,-1.960784,3
0,0,-8.470588,-0.007843,-0.007843,-0.007843,-1.960784,-1.960784,-1.960784,3
0,0,-8.470588,-0.007843,-0.007843,-0.007843,-1.960784,-1.960784,-1.960784,3
0,0,-8.470588,-0.007843,-0.007843,-0.007843,-1.960784,-1.960784,-1.960784,3
0,0,-8.470588,-0.007843,-0.007843,-0.007843,-1.960784,-1.960784,-1.960784,3
0,0,-8.470588,-0.007843,-0.007843,-0.007843,-1.960784,-1.960784,-1.960784,3
0,0,-8.470588,-0.007843,-0.007843,-0.007843,-1.960784,-1.960784,-1.960784,3
0,0,-8.470588,-0.007843,-0.007843,-0.007843,-1.960784,-1.960784,-1.960784,3
0,0,-8.470588,-0.007843,-0.007843,-0.007843,-1.960784,-1.960784,-1.960784,3
0,0,-8.470588,-0.007843,-0.007843,-0.007843,-1.960784,-1.960784,-1.960784,3
0,0,-8.470588,-0.007843,-0.007843,-0.007843,-1.960784,-1.960784,-1.960784,3
0,0,-8.470588,-0.007843,-0.007843,-0.007843,-1.960784,-1.960784,-1.960784,3
0,0,-8.470588,-0.007843,-0.007843,-0.007843,-1.960784,-1.960784,-1.960784,3
0,0,-8.470588,-0.007843,-0.007843,-0.007843,-1.960784,-1.960784,-1.960784,3
0,0,-8.470588,-0.007843,-0.007843,-0.007843,-1.960784,-1.960784,-1.960784,3
0,0,-8.470588,-0.007843,-0.007843,-0.007843,-1.960784,-1.960784,-1.960784,3
0,0,-8.470588,-0.007843,-0.007843,-0.007843,-1.960784,-1.960784,-1.960784,3
0,0,-8.470588,-0.007843,-0.007843,-0.007843,-1.960784,-1.960784,-1.960784,3
0,0,-8.470588,-0.007843,-0.007843,-0.007843,-1.960784,-1.960784,-1.960784,3
0,0,-8.470588,-0.007843,-0.007843,-0.007843,-1.960784,-1.960784,-1.960784,3
0,0,-8.470588,-0.007843,-0.007843,-0.007843,-1.960784,-1.960784,-1.960784,3
0,0,-8.470588,-0.007843,-0.007843,-0.007843,-1.960784,-1.960784,-1.960784,3
0,0,-8.470588,-0.007843,-0.007843,-0.007843,-1.960784,-1.960784,-1.960784,3
0,0,-8.470588,-0.007843,-0.007843,-0.007843,-1.960784,-1.960784,-1.960784,3
0,0,-8.470588,-0.007843,-0.007843,-0.007843,-1.960784,-1.960784,-1.960784,3
0,0,-8.470588,-0.007843,-0.007843,-0.007843,-1.960784,-1.960784,-1.960784,3
0,0,-8.470588,-0.007843,-0.007843,-0.007843,-1.960784,-1.960784,-1.960784,3
0,0,-8.470588,-0.007843,-0.007843,-0.007843,-1.960784,-1.960784,-1.960784,3
0,0,-8.470588,-0.007843,-0.007843,-0.007843,-1.960784,-1.960784,-1.960784,3
0,0,-8.470588,-0.007843,-0.007843,-0.007843,-1.960784,-1.960784,-1.960784,3
0,0,-8.470588,-0.007843,-0.007843,-0.007843,-1.960784,-1.960784,-1.960784,3
0,0,-8.470588,-0.007843,-0.007843,-0.007843,-1.960784,-1.960784,-1.960784,3
0,0,-8.470588,-0.007843,-0.007843,-0.007843,-1.960784,-1.960784,-1.960784,3
0,0,-8.470588,-0.007843,-0.007843,-0.007843,-1.960784,-1.960784,-1.960784,3
0,0,-8.470588,-0.007843,-0.007843,-0.007843,-1.960784,-1.960784,-1.960784,3
0,0,-8.470588,-0.007843,-0.007843,-0.007843,-1.960784,-1.960784,-1.960784,3
0,0,-8.470588,-0.007843,-0.007843,-0.007843,-1.960784,-1.960784,-1.960784,3
0,0,-8.470588,-0.007843,-0.007843,-0.007843,-1.960784,-1.960784,-1.960784,3
0,0,-8.470588,-0.007843,-0.007843,-0.007843,-1.960784,-1.960784,-1.960784,3
0,0,-8.470588,-0.007843,-0.007843,-0.007843,-1.960784,-1.960784,-1.960784,3
0,0,-8.470588,-0.007843,-0.007843,-0.007843,-1.960784,-1.960784,-1.960784,3
0,0,-8.470588,-0.007843,-0.007843,-0.007843,-1.960784,-1.960784,-1.960784,3
0,0,-8.470588,-0.007843,-0.007843,-0.007843,-1.960784,-1.960784,-1.960784,3
0,0,-8.470588,-0.007843,-0.007843,-0.007843,-1.960784,-1.960784,-1.960784,3
0,0,-8.470588,-0.007843,-0.007843,-0.007843,-1.960784,-1.960784,-1.960784,3
0,0,-8.470588,-0.007843,-0.007843,-0.007843,-1.960784,-1.960784,-1.960784,3
0,0,-8.470588,-0.007843,-0.007843,-0.023529,-1.960784,-1.960784,-1.960784,3
0,0,-8.470588,-0.007843,-0.007843,-0.007843,-1.960784,-1.960784,-1.960784,3
0,0,-8.470588,-0.007843,-0.007843,-0.007843,-1.960784,-1.960784,-1.960784,3
0,0,-8.470588,-0.007843,-0.007843,-0.007843,-1.960784,-1.960784,-1.960784,3
0,0,-8.470588,-0.007843,-0.007843,-0.007843,-1.960784,-1.960784,-1.960784,3
0,0,-8.470588,-0.007843,-0.007843,-0.007843,-1.960784,-1.960784,-1.960784,3
0,0,-8.470588,-0.007843,-0.007843,-0.007843,-1.960784,-1.960784,-1.960784,3
0,0,-8.470588,-0.007843,-0.007843,-0.007843,-1.960784,-1.960784,-1.960784,3
0,0,-8.470588,-0.007843,-0.007843,-0.007843,-1.960784,-1.960784,-1.960784,3
0,0,-8.470588,-0.007843,-0.007843,-0.007843,-1.960784,-1.960784,-1.960784,3
0,0,-8.470588,-0.007843,-0.007843,-0.007843,-1.960784,-1.960784,-1.960784,3
0,0,-8.470588,-0.007843,-0.007843,-0.007843,-1.960784,-1.960784,-1.960784,3
0,0,-8.470588,-0.007843,-0.007843,-0.007843,-1.960784,-1.960784,-1.960784,3
0,0,-8.470588,-0.007843,-0.007843,-0.007843,-1.960784,-1.960784,-1.960784,3
0,0,-8.470588,-0.007843,-0.007843,-0.007843,-1.960784,-1.960784,-1.960784,3
0,0,-8.470588,-0.007843,-0.007843,-0.007843,-1.960784,-1.960784,-1.960784,3
0,0,-8.470588,-0.007843,-0.007843,-0.007843,-1.960784,-1.960784,-1.960784,3
0,0,-8.470588,-0.007843,-0.007843,-0.007843,-1.960784,-1.960784,-1.960784,3
0,0,-8.470588,-0.007843,-0.007843,-0.007843,-1.960784,-1.960784,-1.960784,3
0,0,-8.470588,-0.007843,-0.007843,-0.007843,-1.960784,-1.960784,-1.960784,3
0,0,-8.470588,-0.007843,-0.007843,-0.007843,-1.960784,-1.960784,-1.960784,3
0,0,-8.470588,-0.007843,-0.007843,-0.007843,-1.960784,-1.960784,-1.960784,3
0,0,-8.470588,-0.007843,-0.007843,-0.007843,-1.960784,-1.960784,-1.960784,3
0,0,-8.470588,-0.007843,-0.007843,-0.007843,-1.960784,-1.960784,-1.960784,3
0,0,-8.470588,-0.007843,-0.007843,-0.007843,-1.960784,-1.960784,-1.960784,3
0,0,-8.470588,-0.007843,-0.007843,-0.007843,-1.960784,-1.960784,-1.960784,3
0,0,-8.470588,-0.007843,-0.007843,-0.007843,-1.960784,-1.960784,-1.960784,3
0,0,-8.470588,-0.007843,-0.007843,-0.007843,-1.960784,-1.960784,-1.960784,3
0,0,-8.470588,-0.007843,-0.007843,-0.007843,-1.960784,-1.960784,-1.960784,3
0,0,-8.470588,-0.007843,-0.007843,-0.007843,-1.960784,-1.960784,-1.960784,3
0,0,-8.470588,-0.007843,-0.007843,-0.007843,-1.960784,-1.960784,-1.960784,3
0,0,-8.470588,-0.007843,-0.007843,-0.007843,-1.960784,-1.960784,-1.960784,3
0,0,-8.470588,-0.007843,-0.007843,-0.007843,-1.960784,-1.960784,-1.960784,3
0,0,-8.470588,-0.007843,-0.007843,-0.007843,-1.960784,-1.960784,-1.960784,3
0,0,-8.470588,-0.007843,-0.007843,-0.007843,-1.960784,-1.960784,-1.960784,3
0,0,-8.470588,-0.007843,-0.007843,-0.007843,-1.960784,-1.960784,-1.960784,3
0,0,-8.470588,-0.007843,-0.007843,-0.007843,-1.960784,-1.960784,-1.960784,3
0,0,-8.470588,-0.007843,-0.007843,-0.007843,-1.960784,-1.960784,-1.960784,3
0,0,-8.470588,-0.007843,-0.007843,-0.007843,-1.960784,-1.960784,-1.960784,3
0,0,-8.470588,-0.007843,-0.007843,-0.007843,-1.960784,-1.960784,-1.960784,3
0,0,-8.470588,-0.007843,-0.007843,-0.007843,-1.960784,-1.960784,-1.960784,3
0,0,-8.470588,-0.007843,-0.007843,-0.007843,-1.960784,-1.960784,-1.960784,3
0,0,-8.470588,-0.007843,-0.007843,-0.007843,-1.960784,-1.960784,-1.960784,3
0,0,-8.470588,-0.007843,-0.007843,-0.007843,-1.960784,-1.960784,-1.960784,3
0,0,-8.470588,-0.007843,-0.007843,-0.007843,-1.960784,-1.960784,-1.960784,3
0,0,-8.470588,-0.007843,-0.007843,-0.007843,-1.960784,-1.960784,-1.960784,3
0,0,-8.470588,-0.007843,-0.007843,-0.007843,-1.960784,-1.960784,-1.960784,3
0,0,-8.470588,-0.007843,-0.007843,-0.007843,-1.960784,-1.960784,-1.960784,3
0,0,-8.470588,-0.007843,-0.007843,-0.007843,-1.960784,-1.960784,-1.960784,3
0,0,-8.470588,-0.007843,-0.007843,-0.007843,-1.960784,-1.960784,-1.960784,3
0,0,-8.470588,-0.007843,-0.007843,-0.007843,-1.960784,-1.960784,-1.960784,3
0,0,-8.470588,-0.007843,-0.007843,-0.007843,-1.960784,-1.960784,-1.960784,3
0,0,-8.470588,-0.007843,-0.007843,-0.007843,-1.960784,-1.960784,-1.960784,3
0,0,-8.470588,-0.007843,-0.007843,-0.007843,-1.960784,-1.960784,-1.960784,3
0,0,-8.470588,-0.007843,-0.007843,-0.007843,-1.960784,-1.960784,-1.960784,3
0,0,-8.470588,-0.007843,-0.007843,-0.007843,-1.960784,-1.960784,-1.960784,3
0,0,-8.470588,-0.007843,-0.007843,-0.007843,-1.960784,-1.960784,-1.960784,3
0,0,-8.470588,-0.007843,-0.007843,-0.023529,-1.960784,-1.960784,-1.960784,3
0,0,-8.470588,-0.007843,-0.007843,-0.007843,-1.960784,-1.960784,-1.960784,3
0,0,-8.470588,-0.007843,-0.007843,-0.007843,-1.960784,-1.960784,-1.960784,3
0,0,-8.470588,-0.007843,-0.007843,-0.007843,-1.960784,-1.960784,-1.960784,3
0,0,-8.470588,-0.007843,-0.007843,-0.007843,-1.960784,-1.960784,-1.960784,3
0,0,-8.470588,-0.007843,-0.007843,-0.007843,-1.960784,-1.960784,-1.960784,3
0,0,-8.470588,-0.007843,-0.007843,-0.007843,-1.960784,-1.960784,-1.960784,3
