Minutes,Seconds,Frames,Eulerx,Eulery,Eulerz,Accx,Accy,Accz,Gx,Gy,Gz,label,Activity,Result
0,0,1,0,0,0,-0.007843,-0.007843,-0.007843,-1.960784,-1.960784,-1.960784,Null,2,2
0,0,2,0,-2.823529,0,-0.007843,-0.007843,-0.007843,-1.960784,-1.960784,-1.960784,Null,2,2
0,0,3,0,-2.823529,0,-0.007843,-0.007843,-0.007843,-1.960784,-1.960784,-1.960784,Null,9,9
0,0,4,0,-2.823529,0,-0.007843,-0.007843,-0.007843,-1.960784,-1.960784,-1.960784,Null,9,9
0,0,5,0,-2.823529,0,-0.007843,-0.007843,-0.007843,-1.960784,-1.960784,-1.960784,Null,9,9
0,0,6,0,-2.823529,0,-0.007843,-0.007843,-0.007843,-1.960784,-1.960784,-1.960784,Null,9,9
0,0,7,0,-2.823529,0,-0.007843,-0.007843,-0.007843,-1.960784,-1.960784,-1.960784,Null,9,9
0,0,8,0,-2.823529,0,-0.007843,-0.007843,-0.007843,-1.960784,-1.960784,-1.960784,Null,9,9
0,0,9,0,-2.823529,0,-0.007843,-0.007843,-0.007843,-1.960784,-1.960784,-1.960784,Null,9,9
0,0,10,0,-2.823529,0,-0.007843,-0.007843,-0.007843,-1.960784,-1.960784,-1.960784,Null,9,9
0,0,11,0,-2.823529,0,-0.007843,-0.007843,-0.007843,-1.960784,-1.960784,-1.960784,Null,9,9
0,0,12,0,-2.823529,0,-0.007843,-0.007843,-0.007843,-1.960784,-1.960784,-1.960784,Null,9,9
0,0,13,0,-2.823529,0,-0.007843,-0.007843,-0.007843,-1.960784,-1.960784,-1.960784,Null,9,9
0,0,14,0,-2.823529,0,-0.007843,-0.007843,-0.007843,-1.960784,-1.960784,-1.960784,Null,9,9
0,0,15,0,-2.823529,0,-0.007843,-0.007843,-0.007843,-1.960784,-1.960784,-1.960784,Null,9,9
0,0,16,0,-2.823529,0,-0.007843,-0.023529,-0.007843,-1.960784,-1.960784,-1.960784,Null,9,9
0,0,17,0,-2.823529,0,-0.007843,-0.007843,-0.007843,-1.960784,-1.960784,-1.960784,Null,9,9
0,0,18,0,-2.823529,0,-0.007843,-0.007843,-0.007843,-1.960784,-1.960784,-1.960784,Null,9,9
0,0,19,0,-2.823529,0,-0.007843,-0.007843,-0.007843,-1.960784,-1.960784,-1.960784,Null,2,9
0,0,20,0,-2.823529,0,-0.007843,-0.007843,-0.007843,-1.960784,-1.960784,-1.960784,Null,2,9
0,0,21,0,-2.823529,0,-0.007843,-0.007843,-0.007843,-1.960784,-1.960784,-1.960784,Null,2,9
0,0,22,0,-2.823529,0,-0.007843,-0.007843,-0.023529,-1.960784,-1.960784,-1.960784,Null,2,9
0,0,23,0,-2.823529,0,-0.007843,-0.007843,-0.007843,-1.960784,-1.960784,-1.960784,Null,2,9
0,0,24,0,-2.823529,0,-0.007843,-0.007843,-0.007843,-1.960784,-1.960784,-1.960784,Null,2,9
0,0,25,0,-2.823529,0,-0.007843,-0.007843,-0.007843,-1.960784,-1.960784,-1.960784,Null,2,9
0,0,26,0,-2.823529,0,-0.007843,-0.007843,-0.007843,-1.960784,-1.960784,-1.960784,Null,2,9
0,0,27,0,0,0,-0.007843,-0.007843,-0.007843,-1.960784,-1.960784,-1.960784,Null,2,9
0,0,28,0,0,0,-0.023529,-0.007843,-0.007843,-1.960784,-1.960784,-1.960784,Null,2,9
0,0,29,0,0,0,-0.007843,-0.007843,-0.007843,-1.960784,-1.960784,-1.960784,Null,2,9
0,0,30,0,0,0,0.007843,-0.007843,0.070588,-1.960784,-1.960784,-1.960784,Null,2,9
0,1,0,0,0,0,-0.007843,-0.007843,-0.023529,-1.960784,-1.960784,-1.960784,Null,2,9
0,1,1,0,0,0,-0.007843,-0.007843,-0.007843,-1.960784,-1.960784,-1.960784,Null,2,9
0,1,2,0,0,0,-0.007843,-0.007843,-0.023529,-1.960784,-1.960784,-1.960784,Null,2,9
0,1,3,0,0,0,-0.007843,-0.007843,-0.007843,-1.960784,-1.960784,-1.960784,Null,2,9
0,1,4,0,0,0,-0.007843,-0.007843,-0.023529,-1.960784,-1.960784,-1.960784,Null,2,9
0,1,5,0,0,0,-0.007843,-0.007843,-0.007843,-1.960784,-1.960784,-1.960784,Null,2,9
0,1,6,0,0,0,-0.007843,-0.007843,-0.007843,-1.960784,-1.960784,-1.960784,Null,2,9
0,1,7,0,0,0,-0.007843,-0.007843,0.007843,-1.960784,-1.960784,-1.960784,Null,2,9
0,1,8,0,0,0,-0.007843,-0.007843,-0.007843,-1.960784,-1.960784,-1.960784,Null,2,9
0,1,9,0,0,0,-0.007843,-0.007843,-0.007843,-1.960784,-1.960784,-1.960784,Null,2,9
0,1,10,0,0,0,-0.007843,-0.007843,-0.007843,-1.960784,-1.960784,-1.960784,Null,2,9
0,1,11,0,0,0,-0.007843,-0.007843,-0.007843,-1.960784,-1.960784,-1.960784,Null,2,9
0,1,12,0,0,0,-0.007843,-0.007843,-0.007843,-1.960784,-1.960784,-1.960784,Null,2,9
0,1,13,0,0,0,-0.007843,-0.007843,-0.007843,-1.960784,-1.960784,-1.960784,Null,2,9
0,1,14,0,0,0,-0.007843,-0.007843,-0.007843,-1.960784,-1.960784,-1.960784,Null,2,9
0,1,15,0,0,0,-0.007843,-0.007843,-0.023529,-1.960784,-1.960784,-1.960784,Null,2,9
0,1,16,0,0,0,-0.007843,-0.007843,-0.007843,-1.960784,-1.960784,-1.960784,Null,2,9
0,1,17,0,0,0,-0.007843,-0.007843,-0.007843,-1.960784,-1.960784,-1.960784,Null,2,9
0,1,18,0,0,0,-0.007843,-0.007843,-0.007843,-1.960784,-1.960784,-1.960784,Null,2,9
0,1,19,0,0,0,-0.007843,-0.007843,-0.007843,-1.960784,-1.960784,-1.960784,Null,2,9
0,1,20,0,0,0,-0.007843,-0.007843,-0.007843,-1.960784,-1.960784,-1.960784,Null,2,9
0,1,21,0,0,0,-0.007843,-0.007843,-0.007843,-1.960784,-1.960784,-1.960784,Null,2,9
0,1,22,0,0,0,-0.007843,-0.007843,-0.007843,-1.960784,-1.960784,-1.960784,Null,2,9
0,1,23,0,0,0,-0.007843,-0.007843,-0.007843,-1.960784,-1.960784,-1.960784,Null,2,9
0,1,24,0,0,0,-0.007843,-0.007843,-0.007843,-1.960784,-1.960784,-1.960784,Null,2,9
0,1,25,0,0,0,-0.007843,-0.007843,-0.023529,-1.960784,-1.960784,-1.960784,Null,2,9
0,1,26,0,-2.823529,0,-0.007843,-0.007843,-0.007843,-1.960784,-1.960784,-1.960784,Null,2,9
0,1,27,0,0,0,-0.007843,-0.007843,-0.007843,-1.960784,-1.960784,-1.960784,Null,2,9
0,1,28,0,0,0,-0.007843,-0.007843,-0.007843,-1.960784,-1.960784,-1.960784,Null,2,9
0,1,29,0,0,0,-0.007843,-0.007843,-0.007843,-1.960784,-1.960784,-1.960784,Null,2,9
0,2,0,0,0,0,-0.007843,-0.007843,-0.007843,-1.960784,-1.960784,-1.960784,Null,2,9
0,2,1,0,0,0,-0.007843,-0.007843,-0.007843,-1.960784,-1.960784,-1.960784,Null,2,9
0,2,2,0,0,0,-0.007843,-0.007843,-0.007843,-1.960784,-1.960784,-1.960784,Null,2,9
0,2,3,0,0,0,-0.007843,-0.007843,-0.007843,-1.960784,-1.960784,-1.960784,Null,2,9
0,2,4,0,0,0,-0.007843,-0.007843,-0.007843,-1.960784,-1.960784,-1.960784,Null,2,9
0,2,5,0,0,0,-0.007843,-0.007843,-0.007843,-1.960784,-1.960784,-1.960784,Null,2,9
0,2,6,0,0,0,-0.007843,-0.007843,-0.007843,-1.960784,-1.960784,-1.960784,Null,2,9
0,2,7,0,0,0,-0.007843,-0.007843,-0.007843,-1.960784,-1.960784,-1.960784,Null,2,9
0,2,8,0,0,0,-0.007843,-0.007843,-0.007843,-1.960784,-1.960784,-1.960784,Null,2,9
0,2,9,0,0,0,-0.007843,-0.007843,-0.007843,-1.960784,-1.960784,-1.960784,Null,2,9
0,2,10,0,0,0,-0.007843,-0.007843,-0.007843,-1.960784,-1.960784,-1.960784,Null,2,9
0,2,11,0,0,0,-0.007843,-0.007843,0.007843,-1.960784,-1.960784,-1.960784,Null,2,9
0,2,12,0,0,0,-0.007843,-0.007843,-0.007843,-1.960784,-1.960784,-1.960784,Null,2,9
0,2,13,0,0,0,-0.007843,-0.007843,-0.007843,-1.960784,-1.960784,-1.960784,Null,2,9
0,2,14,0,0,0,-0.007843,-0.007843,-0.007843,-1.960784,-1.960784,-1.960784,Null,2,9
0,2,15,0,-2.823529,0,-0.007843,-0.007843,-0.007843,-1.960784,-1.960784,-1.960784,Null,2,9
0,2,16,0,-2.823529,0,-0.007843,-0.007843,-0.007843,-1.960784,-1.960784,-1.960784,Null,2,9
0,2,17,0,-2.823529,0,-0.007843,-0.007843,-0.007843,-1.960784,-1.960784,-1.960784,Null,2,9
0,2,18,0,-2.823529,0,-0.007843,-0.007843,-0.007843,-1.960784,-1.960784,-1.960784,Null,2,9
0,2,19,0,-2.823529,0,-0.007843,-0.007843,-0.007843,-1.960784,-1.960784,-1.960784,Null,2,9
0,2,20,0,-2.823529,0,-0.007843,-0.007843,-0.007843,-1.960784,-1.960784,-1.960784,Null,2,9
0,2,21,0,-2.823529,0,-0.007843,-0.007843,-0.007843,-1.960784,-1.960784,-1.960784,Null,2,9
0,2,22,0,-2.823529,0,-0.007843,-0.007843,-0.007843,-1.960784,-1.960784,-1.960784,Null,2,2
0,2,23,0,-2.823529,0,-0.007843,-0.007843,-0.007843,-1.960784,-1.960784,-1.960784,Null,2,2
0,2,24,0,-2.823529,0,-0.007843,-0.007843,-0.007843,-1.960784,-1.960784,-1.960784,Null,2,2
0,2,25,0,-2.823529,0,-0.007843,-0.007843,-0.007843,-1.960784,-1.960784,-1.960784,Null,2,2
0,2,26,0,-2.823529,0,-0.007843,-0.007843,-0.007843,-1.960784,-1.960784,-1.960784,Null,2,2
0,2,27,0,-2.823529,0,-0.007843,-0.007843,-0.007843,-1.960784,-1.960784,-1.960784,Null,2,2
0,2,28,0,-2.823529,0,-0.007843,-0.007843,-0.007843,-1.960784,-1.960784,-1.960784,Null,2,2
0,2,29,0,-2.823529,0,-0.007843,-0.007843,-0.007843,-1.960784,-1.960784,-1.960784,Null,2,2
0,3,0,0,-2.823529,0,-0.007843,-0.007843,-0.007843,-1.960784,-1.960784,-1.960784,Null,2,2
0,3,1,0,-2.823529,0,-0.007843,-0.007843,-0.007843,-1.960784,-1.960784,-1.960784,Null,2,2
0,3,2,0,-2.823529,0,-0.007843,-0.007843,-0.007843,-1.960784,-1.960784,-1.960784,Null,2,2
0,3,3,0,-2.823529,0,-0.007843,-0.007843,-0.007843,-1.960784,-1.960784,-1.960784,Null,2,2
0,3,4,0,-2.823529,0,-0.007843,-0.007843,-0.007843,-1.960784,-1.960784,-1.960784,Null,2,2
0,3,5,0,-2.823529,0,-0.007843,-0.007843,-0.007843,-1.960784,-1.960784,-1.960784,Null,2,2
0,3,6,0,-2.823529,0,-0.007843,-0.007843,-0.007843,-1.960784,-1.960784,-1.960784,Null,2,2
0,3,7,0,-2.823529,0,-0.007843,-0.007843,-0.007843,-1.960784,-1.960784,-1.960784,Null,2,2
0,3,8,0,0,0,-0.007843,-0.007843,-0.007843,-1.960784,-1.960784,-1.960784,Null,2,2
0,3,9,0,0,0,-0.007843,-0.007843,-0.007843,-1.960784,-1.960784,-1.960784,Null,2,2
0,3,10,0,-2.823529,0,-0.007843,-0.007843,-0.007843,-1.960784,-1.960784,-1.960784,Null,2,2
0,3,11,0,-2.823529,0,-0.007843,-0.007843,-0.007843,-1.960784,-1.960784,-1.960784,Null,2,2
0,3,12,0,0,0,-0.007843,-0.007843,-0.007843,-1.960784,-1.960784,-1.960784,Null,2,2
0,3,13,0,0,0,-0.007843,-0.007843,-0.007843,-1.960784,-1.960784,-1.960784,Null,2,2
0,3,14,0,-2.823529,0,-0.007843,-0.007843,-0.007843,-1.960784,-1.960784,-1.960784,Null,2,2
0,3,15,0,-2.823529,0,-0.007843,-0.007843,-0.007843,-1.960784,-1.960784,-1.960784,Null,2,2
0,3,16,0,-2.823529,0,-0.007843,-0.007843,-0.007843,-1.960784,-1.960784,-1.960784,Null,2,2
0,3,17,0,-2.823529,0,-0.007843,-0.007843,-0.007843,-1.960784,-1.960784,-1.960784,Null,2,2
0,3,18,0,-2.823529,0,-0.007843,-0.007843,-0.007843,-1.960784,-1.960784,-1.960784,Null,2,2
0,3,19,0,0,0,-0.007843,-0.007843,0.007843,-1.960784,-1.960784,-1.960784,Null,2,2
0,3,20,0,0,0,-0.007843,-0.007843,-0.007843,-1.960784,-1.960784,-1.960784,Null,2,2
0,3,21,0,0,0,-0.007843,-0.007843,-0.007843,-1.960784,-1.960784,-1.960784,Null,2,2
0,3,22,0,0,0,-0.007843,-0.007843,-0.007843,-1.960784,-1.960784,-1.960784,Null,2,2
0,3,23,0,0,0,-0.007843,-0.007843,-0.007843,-1.960784,-1.960784,-1.960784,Null,2,2
0,3,24,0,0,0,-0.007843,-0.007843,-0.007843,-1.960784,-1.960784,-1.960784,Null,2,2
0,3,25,0,0,0,-0.007843,-0.007843,-0.007843,-1.960784,-1.960784,-1.960784,Null,2,2
0,3,26,0,0,0,-0.007843,-0.007843,-0.007843,-1.960784,-1.960784,-1.960784,Null,2,2
0,3,27,0,0,0,-0.007843,-0.007843,-0.007843,-1.960784,-1.960784,-1.960784,Null,2,2
0,3,28,0,0,0,-0.007843,-0.007843,-0.007843,-1.960784,-1.960784,-1.960784,Null,2,2
0,3,29,0,0,0,-0.007843,-0.007843,-0.007843,-1.960784,-1.960784,-1.960784,Null,2,2
0,3,30,0,0,0,-0.007843,-0.007843,-0.007843,-1.960784,-1.960784,-1.960784,Null,2,2
0,4,0,0,0,0,-0.007843,-0.007843,-0.007843,-1.960784,-1.960784,-1.960784,Null,2,2
0,4,1,0,0,0,-0.007843,-0.007843,0.007843,-1.960784,-1.960784,-1.960784,Null,2,2
0,4,2,0,0,0,-0.007843,-0.007843,-0.007843,-1.960784,-1.960784,-1.960784,Null,2,2
0,4,3,0,0,0,-0.007843,-0.007843,-0.007843,-1.960784,-1.960784,-1.960784,Null,2,2
0,4,4,0,0,0,-0.007843,-0.007843,-0.007843,-1.960784,-1.960784,-1.960784,Null,2,2
0,4,5,0,0,0,-0.007843,-0.007843,-0.007843,-1.960784,-1.960784,-1.960784,Null,2,2
0,4,6,0,0,0,-0.007843,-0.007843,-0.007843,-1.960784,-1.960784,-1.960784,Null,2,2
0,4,7,0,-2.823529,0,-0.007843,-0.007843,-0.007843,-1.960784,-1.960784,-1.960784,Null,2,2
0,4,8,0,-2.823529,0,-0.007843,-0.007843,-0.007843,-1.960784,-1.960784,-1.960784,Null,2,2
0,4,9,0,-2.823529,0,-0.007843,-0.007843,-0.007843,-1.960784,-1.960784,-1.960784,Null,2,2
0,4,10,0,-2.823529,0,-0.007843,-0.007843,-0.007843,-1.960784,-1.960784,-1.960784,Null,2,2
0,4,11,0,-2.823529,0,-0.007843,-0.007843,-0.007843,-1.960784,-1.960784,-1.960784,Null,2,2
0,4,12,0,-2.823529,0,-0.007843,-0.007843,-0.007843,-1.960784,-1.960784,-1.960784,Null,2,2
0,4,13,0,-2.823529,0,-0.007843,-0.007843,-0.007843,-1.960784,-1.960784,-1.960784,Null,2,2
0,4,14,0,-2.823529,0,-0.007843,-0.007843,-0.007843,-1.960784,-1.960784,-1.960784,Null,2,2
0,4,15,0,-2.823529,0,-0.007843,-0.007843,-0.007843,-1.960784,-1.960784,-1.960784,Null,2,2
0,4,16,0,-2.823529,0,-0.007843,-0.007843,-0.007843,-1.960784,-1.960784,-1.960784,Null,2,2
0,4,17,0,-2.823529,0,-0.007843,-0.007843,-0.007843,-1.960784,-1.960784,-1.960784,Null,2,2
0,4,18,0,-2.823529,0,-0.007843,-0.007843,-0.007843,-1.960784,-1.960784,-1.960784,Null,2,2
0,4,19,0,-2.823529,0,-0.007843,-0.007843,-0.007843,-1.960784,-1.960784,-1.960784,Null,2,2
0,4,20,0,-2.823529,0,-0.007843,-0.007843,-0.007843,-1.960784,-1.960784,-1.960784,Null,2,2
0,4,21,0,-2.823529,0,-0.007843,-0.007843,-0.007843,-1.960784,-1.960784,-1.960784,Null,2,2
0,4,22,0,-2.823529,0,-0.007843,-0.007843,-0.007843,-1.960784,-1.960784,-1.960784,Null,2,2
0,4,23,0,-2.823529,0,-0.007843,-0.007843,-0.007843,-1.960784,-1.960784,-1.960784,Null,2,2
0,4,24,0,-2.823529,0,-0.007843,-0.007843,-0.007843,-1.960784,-1.960784,-1.960784,Null,2,2
0,4,25,0,-2.823529,0,-0.007843,-0.007843,-0.007843,-1.960784,-1.960784,-1.960784,Null,2,2
0,4,26,0,-2.823529,0,-0.007843,-0.007843,-0.007843,-1.960784,-1.960784,-1.960784,Null,2,2
0,4,27,0,-2.823529,0,-0.007843,-0.007843,-0.007843,-1.960784,-1.960784,-1.960784,Null,2,2
0,4,28,0,-2.823529,0,-0.007843,-0.007843,-0.007843,-1.960784,-1.960784,-1.960784,Null,2,2
0,4,29,0,-2.823529,0,-0.007843,-0.007843,-0.007843,-1.960784,-1.960784,-1.960784,Null,2,2
0,5,0,0,-2.823529,0,-0.007843,-0.007843,-0.007843,-1.960784,-1.960784,-1.960784,Null,2,2
0,5,1,0,-2.823529,0,-0.007843,-0.007843,-0.007843,-1.960784,-1.960784,-1.960784,Null,2,2
0,5,2,0,-2.823529,0,-0.007843,-0.007843,-0.007843,-1.960784,-1.960784,-1.960784,Null,2,2
0,5,3,0,-2.823529,0,-0.007843,-0.007843,-0.007843,-1.960784,-1.960784,-1.960784,Null,2,2
0,5,4,0,-2.823529,0,-0.007843,-0.007843,-0.007843,-1.960784,-1.960784,-1.960784,Null,2,2
0,5,5,0,-2.823529,0,-0.007843,-0.007843,-0.007843,-1.960784,-1.960784,-1.960784,Null,2,2
0,5,6,0,-2.823529,0,-0.007843,-0.007843,-0.007843,-1.960784,-1.960784,-1.960784,Null,2,2
0,5,7,0,-2.823529,0,-0.007843,-0.007843,-0.007843,-1.960784,-1.960784,-1.960784,Null,2,2
0,5,8,0,-2.823529,0,-0.007843,-0.007843,-0.007843,-1.960784,-1.960784,-1.960784,Null,2,2
0,5,9,0,-2.823529,0,-0.007843,-0.007843,-0.007843,-1.960784,-1.960784,-1.960784,Null,2,2
0,5,10,0,-2.823529,0,-0.007843,-0.007843,-0.007843,-1.960784,-1.960784,-1.960784,Null,2,2
0,5,11,0,-2.823529,0,-0.007843,-0.007843,-0.007843,-1.960784,-1.960784,-1.960784,Null,2,2
0,5,12,0,-2.823529,0,-0.007843,-0.007843,-0.007843,-1.960784,-1.960784,-1.960784,Null,2,2
0,5,13,0,-2.823529,0,-0.007843,-0.007843,-0.007843,-1.960784,-1.960784,-1.960784,Null,2,2
0,5,14,0,-2.823529,0,-0.007843,-0.007843,-0.007843,-1.960784,-1.960784,-1.960784,Null,2,2
0,5,15,0,-2.823529,0,-0.007843,-0.007843,-0.007843,-1.960784,-1.960784,-1.960784,Null,2,2
0,5,16,0,-2.823529,0,-0.007843,-0.007843,-0.007843,-1.960784,-1.960784,-1.960784,Null,2,2
0,5,17,0,-2.823529,0,-0.007843,-0.007843,-0.007843,-1.960784,-1.960784,-1.960784,Null,2,2
0,5,18,0,-2.823529,0,-0.007843,-0.007843,-0.007843,-1.960784,-1.960784,-1.960784,Null,2,2
0,5,19,0,-2.823529,0,-0.007843,-0.007843,-0.007843,-1.960784,-1.960784,-1.960784,Null,2,2
0,5,20,0,-2.823529,0,-0.007843,-0.007843,-0.007843,-1.960784,-1.960784,-1.960784,Null,2,2
0,5,21,0,-2.823529,0,-0.007843,-0.007843,-0.007843,-1.960784,-1.960784,-1.960784,Null,2,2
0,5,22,0,-2.823529,0,-0.007843,-0.007843,-0.007843,-1.960784,-1.960784,-1.960784,Null,2,2
0,5,23,0,-2.823529,0,-0.007843,-0.007843,-0.007843,-1.960784,-1.960784,-1.960784,Null,2,2
0,5,24,0,-2.823529,0,-0.007843,-0.007843,-0.007843,-1.960784,-1.960784,-1.960784,Null,2,2
0,5,25,0,-2.823529,0,-0.007843,-0.007843,-0.007843,-1.960784,-1.960784,-1.960784,Null,2,2
0,5,26,0,-2.823529,0,-0.007843,-0.007843,-0.007843,-1.960784,-1.960784,-1.960784,Null,2,2
0,5,27,0,-2.823529,0,-0.007843,-0.007843,-0.007843,-1.960784,-1.960784,-1.960784,Null,2,2
0,5,28,0,-2.823529,0,-0.007843,-0.007843,-0.007843,-1.960784,-1.960784,-1.960784,Null,2,2
0,5,29,0,-2.823529,0,-0.007843,-0.007843,-0.007843,-1.960784,-1.960784,-1.960784,Null,2,2
0,6,0,0,-2.823529,0,-0.007843,-0.007843,-0.007843,-1.960784,-1.960784,-1.960784,Null,2,2
0,6,1,0,-2.823529,0,-0.007843,-0.007843,-0.007843,-1.960784,-1.960784,-1.960784,Null,2,2
0,6,2,0,-2.823529,0,-0.007843,-0.007843,-0.007843,-1.960784,-1.960784,-1.960784,Null,2,2
0,6,3,0,-2.823529,0,-0.007843,-0.007843,-0.007843,-1.960784,-1.960784,-1.960784,Null,2,2
0,6,4,0,-2.823529,0,-0.007843,-0.007843,-0.007843,-1.960784,-1.960784,-1.960784,Null,2,2
0,6,5,0,-2.823529,0,-0.007843,-0.007843,-0.007843,-1.960784,-1.960784,-1.960784,Null,2,2
0,6,6,0,-2.823529,0,-0.007843,-0.007843,-0.007843,-1.960784,-1.960784,-1.960784,Null,2,2
0,6,7,0,-2.823529,0,-0.007843,-0.007843,-0.007843,-1.960784,-1.960784,-1.960784,Null,2,2
0,6,8,0,-2.823529,0,-0.007843,-0.007843,-0.007843,-1.960784,-1.960784,-1.960784,Null,2,2
0,6,9,0,-2.823529,0,-0.007843,-0.007843,-0.007843,-1.960784,-1.960784,-1.960784,Null,2,2
0,6,10,0,-2.823529,0,-0.007843,-0.007843,-0.007843,-1.960784,-1.960784,-1.960784,Null,2,2
0,6,11,0,-2.823529,0,-0.007843,-0.007843,-0.007843,-1.960784,-1.960784,-1.960784,Null,2,2
0,6,12,0,-2.823529,0,-0.007843,-0.007843,-0.007843,-1.960784,-1.960784,-1.960784,Null,2,2
0,6,13,0,-2.823529,0,-0.007843,-0.007843,-0.007843,-1.960784,-1.960784,-1.960784,Null,2,2
0,6,14,0,-2.823529,0,-0.007843,-0.007843,-0.007843,-1.960784,-1.960784,-1.960784,Null,2,2
0,6,15,0,-2.823529,0,-0.007843,-0.007843,-0.007843,-1.960784,-1.960784,-1.960784,Null,2,2
0,6,16,0,-2.823529,0,-0.007843,-0.007843,-0.007843,-1.960784,-1.960784,-1.960784,Null,2,2
0,6,17,0,-2.823529,0,-0.007843,-0.007843,-0.007843,-1.960784,-1.960784,-1.960784,Null,2,2
0,6,18,0,-2.823529,0,-0.007843,-0.007843,-0.007843,-1.960784,-1.960784,-1.960784,Null,2,2
0,6,19,0,-2.823529,0,-0.007843,-0.007843,-0.007843,-1.960784,-1.960784,-1.960784,Null,2,2
0,6,20,0,-2.823529,0,-0.007843,-0.007843,-0.007843,-1.960784,-1.960784,-1.960784,Null,2,2
0,6,21,0,-2.823529,0,-0.007843,-0.007843,-0.007843,-1.960784,-1.960784,-1.960784,Null,2,2
0,6,22,0,-2.823529,0,-0.007843,-0.007843,-0.007843,-1.960784,-1.960784,-1.960784,Null,2,2
0,6,23,0,-2.823529,0,-0.007843,-0.007843,-0.007843,-1.960784,-1.960784,-1.960784,Null,2,2
0,6,24,0,-2.823529,0,-0.007843,-0.007843,-0.007843,-1.960784,-1.960784,-1.960784,Null,2,2
0,6,25,0,-2.823529,0,-0.007843,-0.007843,-0.007843,-1.960784,-1.960784,-1.960784,Null,2,2
0,6,26,0,-2.823529,0,-0.007843,-0.007843,-0.007843,-1.960784,-1.960784,-1.960784,Null,2,2
0,6,27,0,-2.823529,0,-0.007843,-0.007843,-0.007843,-1.960784,-1.960784,-1.960784,Null,2,2
0,6,28,0,-2.823529,0,-0.007843,-0.007843,-0.007843,-1.960784,-1.960784,-1.960784,Null,2,2
0,6,29,0,-2.823529,0,-0.007843,-0.007843,-0.007843,-1.960784,-1.960784,-1.960784,Null,2,2
0,6,30,0,-2.823529,0,-0.007843,-0.007843,-0.007843,-1.960784,-1.960784,-1.960784,Null,2,2
0,7,0,0,-2.823529,0,-0.007843,-0.007843,-0.007843,-1.960784,-1.960784,-1.960784,Null,2,2
0,7,1,0,-2.823529,0,-0.007843,-0.007843,-0.007843,-1.960784,-1.960784,-1.960784,Null,2,2
0,7,2,0,-2.823529,0,-0.007843,-0.007843,-0.007843,-1.960784,-1.960784,-1.960784,Null,2,2
0,7,3,0,-2.823529,0,-0.007843,-0.007843,-0.007843,-1.960784,-1.960784,-1.960784,Null,2,2
0,7,4,0,-2.823529,0,-0.007843,-0.007843,-0.007843,-1.960784,-1.960784,-1.960784,Null,2,2
0,7,5,0,-2.823529,0,-0.007843,-0.007843,-0.007843,-1.960784,-1.960784,-1.960784,Null,2,2
0,7,6,0,-2.823529,0,-0.007843,-0.007843,-0.007843,-1.960784,-1.960784,-1.960784,Null,2,2
0,7,7,0,-2.823529,0,-0.007843,-0.007843,-0.007843,-1.960784,-1.960784,-1.960784,Null,2,2
0,7,8,0,-2.823529,0,-0.007843,-0.007843,-0.007843,-1.960784,-1.960784,-1.960784,Null,2,2
0,7,9,0,-2.823529,0,-0.007843,-0.007843,-0.007843,-1.960784,-1.960784,-1.960784,Null,2,2
0,7,10,0,-2.823529,0,-0.007843,-0.007843,-0.007843,-1.960784,-1.960784,-1.960784,Null,2,2
0,7,11,0,-2.823529,0,-0.007843,-0.007843,-0.007843,-1.960784,-1.960784,-1.960784,Null,2,2
0,7,12,0,-2.823529,0,-0.007843,-0.007843,-0.007843,-1.960784,-1.960784,-1.960784,Null,2,2
0,7,13,0,-2.823529,0,-0.007843,-0.007843,-0.007843,-1.960784,-1.960784,-1.960784,Null,2,2
0,7,14,0,-2.823529,0,-0.007843,-0.007843,-0.007843,-1.960784,-1.960784,-1.960784,Null,2,2
0,7,15,0,-2.823529,0,-0.007843,-0.007843,-0.007843,-1.960784,-1.960784,-1.960784,Null,2,2
0,7,16,0,-2.823529,0,-0.007843,-0.007843,-0.007843,-1.960784,-1.960784,-1.960784,Null,2,2
0,7,17,0,-2.823529,0,-0.007843,-0.007843,-0.007843,-1.960784,-1.960784,-1.960784,Null,2,2
0,7,18,0,-2.823529,0,-0.007843,-0.007843,-0.007843,-1.960784,-1.960784,-1.960784,Null,2,2
0,7,19,0,-2.823529,0,-0.007843,-0.007843,-0.007843,-1.960784,-1.960784,-1.960784,Null,2,2
0,7,20,0,-2.823529,0,-0.007843,-0.007843,-0.007843,-1.960784,-1.960784,-1.960784,Null,2,2
0,7,21,0,-2.823529,0,-0.007843,-0.007843,-0.007843,-1.960784,-1.960784,-1.960784,Null,2,2
0,7,22,0,-2.823529,0,-0.007843,-0.007843,-0.007843,-1.960784,-1.960784,-1.960784,Null,2,2
0,7,23,0,-2.823529,0,-0.007843,-0.007843,-0.007843,-1.960784,-1.960784,-1.960784,Null,2,2
0,7,24,0,-2.823529,0,-0.007843,-0.007843,-0.007843,-1.960784,-1.960784,-1.960784,Null,2,2
0,7,25,0,-2.823529,0,-0.007843,-0.007843,-0.007843,-1.960784,-1.960784,-1.960784,Null,2,2
0,7,26,0,-2.823529,0,-0.007843,-0.007843,-0.007843,-1.960784,-1.960784,-1.960784,Null,2,2
0,7,27,0,-2.823529,0,-0.007843,-0.007843,-0.007843,-1.960784,-1.960784,-1.960784,Null,2,2
0,7,28,0,-2.823529,0,-0.007843,-0.007843,-0.007843,-1.960784,-1.960784,-1.960784,Null,2,2
0,7,29,0,-2.823529,0,-0.007843,-0.007843,-0.007843,-1.960784,-1.960784,-1.960784,Null,2,2
0,8,0,0,-2.823529,0,-0.007843,-0.007843,-0.007843,-1.960784,-1.960784,-1.960784,Null,2,2
0,8,1,0,-2.823529,0,-0.007843,-0.007843,-0.007843,-1.960784,-1.960784,-1.960784,Null,2,2
0,8,2,0,-2.823529,0,-0.007843,-0.007843,-0.007843,-1.960784,-1.960784,-1.960784,Null,2,2
0,8,3,0,-2.823529,0,-0.007843,-0.007843,-0.007843,-1.960784,-1.960784,-1.960784,Null,2,2
0,8,4,0,-2.823529,0,-0.007843,-0.007843,-0.007843,-1.960784,-1.960784,-1.960784,Null,2,2
0,8,5,0,-2.823529,0,-0.007843,-0.007843,-0.007843,-1.960784,-1.960784,-1.960784,Null,2,2
0,8,6,0,-2.823529,0,-0.007843,-0.007843,-0.007843,-1.960784,-1.960784,-1.960784,Null,2,2
0,8,7,0,-2.823529,0,-0.007843,-0.007843,-0.007843,-1.960784,-1.960784,-1.960784,Null,2,2
0,8,8,0,-2.823529,0,-0.007843,-0.007843,-0.007843,-1.960784,-1.960784,-1.960784,Null,2,2
0,8,9,0,-2.823529,0,-0.007843,-0.007843,-0.007843,-1.960784,-1.960784,-1.960784,Null,2,2
0,8,10,0,-2.823529,0,-0.007843,-0.007843,-0.007843,-1.960784,-1.960784,-1.960784,Null,2,2
0,8,11,0,-2.823529,0,-0.007843,-0.007843,-0.007843,-1.960784,-1.960784,-1.960784,Null,2,2
0,8,12,0,-2.823529,0,-0.007843,-0.007843,-0.007843,-1.960784,-1.960784,-1.960784,Null,2,2
0,8,13,0,-2.823529,0,-0.007843,-0.007843,-0.007843,-1.960784,-1.960784,-1.960784,Null,2,2
0,8,14,0,-2.823529,0,-0.007843,-0.007843,-0.007843,-1.960784,-1.960784,-1.960784,Null,2,2
0,8,15,0,-2.823529,0,-0.007843,-0.007843,-0.007843,-1.960784,-1.960784,-1.960784,Null,2,2
0,8,16,0,-2.823529,0,-0.007843,-0.007843,-0.007843,-1.960784,-1.960784,-1.960784,Null,2,2
0,8,17,0,-2.823529,0,-0.007843,-0.007843,-0.007843,-1.960784,-1.960784,-1.960784,Null,2,2
0,8,18,0,-2.823529,0,-0.007843,-0.007843,-0.007843,-1.960784,-1.960784,-1.960784,Null,2,2
0,8,19,0,-2.823529,0,-0.007843,-0.007843,-0.007843,-1.960784,-1.960784,-1.960784,Null,2,2
0,8,20,0,-2.823529,0,-0.007843,-0.007843,-0.007843,-1.960784,-1.960784,-1.960784,Null,2,2
0,8,21,0,-2.823529,0,-0.007843,-0.007843,-0.007843,-1.960784,-1.960784,-1.960784,Null,2,2
0,8,22,0,-2.823529,0,-0.007843,-0.007843,-0.007843,-1.960784,-1.960784,-1.960784,Null,2,2
0,8,23,0,-2.823529,0,-0.007843,-0.007843,-0.007843,-1.960784,-1.960784,-1.960784,Null,2,2
0,8,24,0,-2.823529,0,-0.007843,-0.007843,-0.007843,-1.960784,-1.960784,-1.960784,Null,2,2
0,8,25,0,-2.823529,0,-0.007843,-0.007843,-0.007843,-1.960784,-1.960784,-1.960784,Null,2,2
0,8,26,0,-2.823529,0,-0.007843,-0.007843,-0.007843,-1.960784,-1.960784,-1.960784,Null,2,2
0,8,27,0,0,0,-0.007843,-0.007843,-0.007843,-1.960784,-1.960784,-1.960784,Null,2,2
0,8,28,0,0,0,-0.007843,-0.007843,-0.007843,-1.960784,-1.960784,-1.960784,Null,2,2
0,8,29,0,0,0,-0.007843,-0.007843,-0.007843,-1.960784,-1.960784,-1.960784,Null,2,2
0,9,0,0,0,0,-0.007843,-0.007843,-0.007843,-1.960784,-1.960784,-1.960784,Null,2,2
0,9,1,0,0,0,-0.007843,-0.007843,-0.007843,-1.960784,-1.960784,-1.960784,Null,2,2
0,9,2,0,0,0,-0.007843,-0.007843,-0.007843,-1.960784,-1.960784,-1.960784,Null,2,2
0,9,3,0,0,0,-0.007843,-0.007843,-0.007843,-1.960784,-1.960784,-1.960784,Null,2,2
0,9,4,0,0,0,-0.007843,-0.007843,-0.007843,-1.960784,-1.960784,-1.960784,Null,2,2
0,9,5,0,0,0,-0.007843,-0.007843,-0.007843,-1.960784,-1.960784,-1.960784,Null,2,2
0,9,6,0,0,0,-0.007843,-0.007843,-0.007843,-1.960784,-1.960784,-1.960784,Null,2,2
0,9,7,0,0,0,-0.007843,-0.007843,-0.007843,-1.960784,-1.960784,-1.960784,Null,2,2
0,9,8,0,0,0,-0.007843,-0.007843,-0.007843,-1.960784,-1.960784,-1.960784,Null,2,2
0,9,9,0,0,0,-0.007843,-0.007843,-0.007843,-1.960784,-1.960784,-1.960784,Null,2,2
0,9,10,0,0,0,-0.007843,-0.007843,-0.007843,-1.960784,-1.960784,-1.960784,Null,2,2
0,9,11,0,0,0,-0.007843,-0.007843,-0.007843,-1.960784,-1.960784,-1.960784,Null,2,2
0,9,12,0,0,0,-0.007843,-0.007843,-0.007843,-1.960784,-1.960784,-1.960784,Null,2,2
0,9,13,0,0,0,-0.007843,-0.007843,-0.007843,-1.960784,-1.960784,-1.960784,Null,2,2
0,9,14,0,0,0,-0.007843,-0.007843,-0.007843,-1.960784,-1.960784,-1.960784,Null,2,2
0,9,15,0,0,0,-0.007843,-0.007843,-0.007843,-1.960784,-1.960784,-1.960784,Null,2,2
0,9,16,0,0,0,-0.007843,-0.007843,-0.007843,-1.960784,-1.960784,-1.960784,Null,2,2
0,9,17,0,0,0,-0.007843,-0.007843,-0.007843,-1.960784,-1.960784,-1.960784,Null,2,2
0,9,18,0,0,0,-0.007843,-0.007843,-0.023529,-1.960784,-1.960784,-1.960784,Null,2,2
0,9,19,0,0,0,-0.007843,-0.007843,-0.007843,-1.960784,-1.960784,-1.960784,Null,2,2
0,9,20,0,0,0,-0.007843,-0.007843,-0.007843,-1.960784,-1.960784,-1.960784,2,2,2
0,9,21,0,0,0,-0.007843,-0.007843,-0.007843,-1.960784,-1.960784,-1.960784,2,2,2
0,9,22,0,0,0,-0.007843,-0.007843,-0.007843,-1.960784,-1.960784,-1.960784,2,2,2
0,9,23,0,0,0,-0.007843,-0.007843,-0.007843,-1.960784,-1.960784,-1.960784,2,2,2
0,9,24,0,0,0,-0.007843,-0.007843,-0.007843,-1.960784,-1.960784,-1.960784,2,2,2
0,9,25,0,0,0,0.007843,-0.007843,-0.023529,-1.960784,-1.960784,-1.960784,2,2,2
0,9,26,0,0,1.411765,0.070588,0.117647,0.023529,-5.882353,-1.960784,17.647059,2,2,2
0,9,27,-2.823529,0,1.411765,-0.023529,-0.117647,-0.023529,-29.411765,21.568627,17.647059,2,2,2
0,9,28,-4.235294,0,1.411765,-0.007843,-0.070588,0.27451,-21.568627,1.960784,9.803922,2,2,2
0,9,29,-2.823529,0,1.411765,0.007843,-0.054902,0.258824,9.803922,-21.568627,1.960784,2,2,2
0,9,30,-2.823529,-2.823529,2.823529,-0.039216,-0.070588,0.14902,13.72549,-37.254902,1.960784,2,2,2
0,10,0,-2.823529,-4.235294,2.823529,0.007843,-0.086275,0.101961,1.960784,-29.411765,-1.960784,2,2,2
0,10,1,-2.823529,-4.235294,2.823529,0.054902,-0.086275,0.133333,-17.647059,-29.411765,1.960784,2,2,2
0,10,2,-4.235294,-5.647059,2.823529,0.086275,-0.086275,0.133333,-21.568627,-33.333333,-1.960784,2,2,2
0,10,3,-4.235294,-7.058824,2.823529,0.133333,-0.054902,0.196078,-29.411765,-25.490196,5.882353,2,1,2
0,10,4,-5.647059,-8.470588,2.823529,0.164706,-0.101961,0.227451,-33.333333,-33.333333,9.803922,2,1,2
0,10,5,-7.058824,-8.470588,4.235294,0.180392,-0.086275,0.227451,-52.941176,-33.333333,17.647059,2,1,2
0,10,6,-9.882353,-9.882353,4.235294,0.196078,-0.086275,0.164706,-72.54902,-33.333333,25.490196,2,1,2
0,10,7,-11.294118,-11.294118,5.647059,0.227451,-0.070588,0.14902,-72.54902,-37.254902,29.411765,2,1,2
0,10,8,-12.705882,-12.705882,7.058824,0.243137,-0.070588,-0.007843,-41.176471,-64.705882,33.333333,2,1,2
0,10,9,-12.705882,-15.529412,8.470588,0.180392,-0.054902,-0.305882,-13.72549,-72.54902,45.098039,2,1,2
0,10,10,-12.705882,-16.941176,9.882353,0.117647,-0.117647,-0.588235,21.568627,-56.862745,33.333333,2,1,2
0,10,11,-12.705882,-18.352941,11.294118,0.101961,-0.086275,-0.792157,17.647059,-21.568627,37.254902,2,1,2
0,10,12,-12.705882,-18.352941,12.705882,0.133333,-0.086275,-0.729412,-17.647059,-1.960784,60.784314,2,1,2
0,10,13,-12.705882,-18.352941,14.117647,0.086275,-0.196078,-0.760784,-1.960784,-1.960784,41.176471,2,1,2
0,10,14,-12.705882,-18.352941,15.529412,0.023529,-0.007843,-0.807843,25.490196,-5.882353,29.411765,2,1,2
0,10,15,-9.882353,-18.352941,15.529412,-0.070588,-0.086275,-0.745098,52.941176,9.803922,21.568627,2,1,2
0,10,16,-8.470588,-15.529412,16.941176,-0.023529,-0.023529,-0.541176,68.627451,41.176471,9.803922,2,1,2
0,10,17,-7.058824,-14.117647,16.941176,0.007843,-0.007843,-0.227451,29.411765,56.862745,25.490196,2,1,2
0,10,18,-5.647059,-11.294118,18.352941,-0.023529,-0.039216,-0.007843,41.176471,60.784314,17.647059,2,1,2
0,10,19,-4.235294,-8.470588,18.352941,0.023529,-0.054902,0.352941,25.490196,72.54902,29.411765,2,0,2
0,10,20,-2.823529,-7.058824,19.764706,-0.023529,-0.133333,0.52549,33.333333,52.941176,25.490196,2,0,2
0,10,21,0,-5.647059,19.764706,0.007843,-0.117647,0.541176,52.941176,29.411765,13.72549,2,0,2
0,10,22,1.411765,-5.647059,21.176471,-0.023529,-0.101961,0.321569,49.019608,5.882353,9.803922,2,0,2
0,10,23,1.411765,-5.647059,21.176471,-0.039216,-0.101961,0.164706,13.72549,9.803922,5.882353,2,0,2
0,10,24,1.411765,-4.235294,21.176471,-0.039216,-0.039216,0.070588,-9.803922,17.647059,5.882353,2,0,2
0,10,25,1.411765,-4.235294,21.176471,-0.039216,0.007843,0.054902,5.882353,13.72549,9.803922,2,0,2
0,10,26,2.823529,-2.823529,21.176471,-0.039216,-0.070588,0.054902,21.568627,5.882353,5.882353,2,0,2
0,10,27,1.411765,-2.823529,22.588235,-0.039216,-0.023529,0.117647,-5.882353,1.960784,13.72549,2,0,2
0,10,28,1.411765,-2.823529,22.588235,-0.054902,-0.023529,0.070588,-9.803922,-1.960784,13.72549,2,0,2
0,10,29,1.411765,-2.823529,22.588235,-0.070588,-0.039216,-0.039216,-1.960784,-9.803922,13.72549,2,0,2
0,11,0,0,0,22.588235,0.556863,-0.682353,-0.384314,-5.882353,72.54902,-13.72549,2,0,2
0,11,1,0,-2.823529,24,-0.258824,0.023529,0.462745,1.960784,-33.333333,9.803922,2,0,2
0,11,2,1.411765,-2.823529,24,0.007843,0.039216,-0.070588,-1.960784,-5.882353,5.882353,2,0,2
0,11,3,1.411765,-2.823529,24,-0.054902,0.007843,0.007843,-1.960784,1.960784,-1.960784,2,0,2
0,11,4,1.411765,-2.823529,24,-0.007843,0.007843,0.007843,-1.960784,-1.960784,-1.960784,2,0,2
0,11,5,0,-2.823529,24,-0.023529,0.023529,0.007843,-1.960784,-1.960784,-1.960784,2,1,2
0,11,6,0,-2.823529,24,-0.133333,-0.039216,0.117647,-9.803922,-9.803922,9.803922,2,1,2
0,11,7,-2.823529,0,24,0.054902,-0.290196,0.588235,-41.176471,25.490196,5.882353,2,1,2
0,11,8,-2.823529,-2.823529,24,0.054902,-0.14902,0.870588,-21.568627,-29.411765,-13.72549,2,1,2
0,11,9,-2.823529,-4.235294,22.588235,0.039216,-0.054902,0.572549,17.647059,-60.784314,-21.568627,2,1,2
0,11,10,-2.823529,-7.058824,22.588235,0.101961,0.007843,0.352941,1.960784,-56.862745,-13.72549,2,1,2
0,11,11,-2.823529,-8.470588,22.588235,0.14902,0.023529,0.14902,-25.490196,-45.098039,1.960784,2,1,2
0,11,12,-4.235294,-9.882353,24,0.227451,0.007843,0.054902,-45.098039,-41.176471,9.803922,2,1,2
0,11,13,-5.647059,-11.294118,24,0.258824,0.070588,-0.117647,-52.941176,-45.098039,17.647059,2,1,2
0,11,14,-7.058824,-12.705882,24,0.243137,0.039216,-0.305882,-25.490196,-37.254902,17.647059,2,1,2
0,11,15,-8.470588,-12.705882,25.411765,0.27451,0.007843,-0.337255,-52.941176,-21.568627,37.254902,2,1,2
0,11,16,-9.882353,-14.117647,26.823529,0.258824,-0.054902,-0.431373,-72.54902,-17.647059,45.098039,2,1,2
0,11,17,-11.294118,-14.117647,28.235294,0.180392,-0.133333,-0.541176,-49.019608,-5.882353,41.176471,2,1,2
0,11,18,-12.705882,-14.117647,29.647059,0.164706,-0.086275,-0.541176,-17.647059,-5.882353,25.490196,2,1,2
0,11,19,-12.705882,-14.117647,31.058824,0.101961,-0.133333,-0.619608,-5.882353,-9.803922,29.411765,2,1,2
0,11,20,-12.705882,-15.529412,32.470588,0.101961,-0.14902,-0.603922,1.960784,-5.882353,33.333333,2,1,2
0,11,21,-12.705882,-15.529412,32.470588,-0.023529,-0.164706,-0.682353,17.647059,-17.647059,25.490196,2,0,2
0,11,22,-11.294118,-14.117647,33.882353,-0.039216,-0.117647,-0.635294,29.411765,-1.960784,17.647059,2,0,2
0,11,23,-11.294118,-14.117647,33.882353,-0.039216,-0.101961,-0.52549,21.568627,9.803922,21.568627,2,0,2
0,11,24,-9.882353,-12.705882,35.294118,-0.039216,-0.133333,-0.415686,41.176471,17.647059,17.647059,2,0,2
0,11,25,-7.058824,-12.705882,35.294118,-0.054902,-0.117647,-0.290196,49.019608,21.568627,9.803922,2,0,2
0,11,26,-7.058824,-9.882353,35.294118,-0.039216,-0.054902,-0.133333,33.333333,37.254902,13.72549,2,0,2
0,11,27,-5.647059,-8.470588,36.705882,-0.086275,-0.070588,0.070588,45.098039,45.098039,9.803922,2,0,2
0,11,28,-2.823529,-7.058824,36.705882,-0.039216,0.007843,0.352941,41.176471,49.019608,13.72549,2,0,2
0,11,29,-2.823529,-5.647059,36.705882,-0.023529,-0.101961,0.556863,33.333333,33.333333,9.803922,2,0,2
0,12,0,0,-5.647059,36.705882,-0.023529,-0.054902,0.462745,45.098039,17.647059,1.960784,2,0,2
0,12,1,1.411765,-4.235294,36.705882,0.007843,-0.039216,0.4,45.098039,5.882353,-1.960784,2,0,2
0,12,2,2.823529,-4.235294,36.705882,-0.023529,-0.007843,0.227451,37.254902,1.960784,1.960784,2,0,2
0,12,3,4.235294,-4.235294,38.117647,-0.023529,-0.054902,0.14902,17.647059,5.882353,1.960784,2,0,2
0,12,4,4.235294,-4.235294,38.117647,-0.023529,0.007843,0.039216,9.803922,-1.960784,-1.960784,2,0,2
0,12,5,4.235294,-4.235294,38.117647,-0.039216,0.054902,-0.054902,5.882353,1.960784,5.882353,2,0,2
0,12,6,4.235294,-4.235294,38.117647,-0.039216,0.007843,-0.086275,13.72549,9.803922,1.960784,2,0,2
0,12,7,4.235294,-2.823529,38.117647,-0.054902,0.023529,-0.086275,-9.803922,21.568627,9.803922,2,0,2
0,12,8,2.823529,0,38.117647,0.305882,-0.117647,-0.352941,-21.568627,41.176471,13.72549,2,0,2
0,12,9,4.235294,0,38.117647,0.039216,0.054902,-0.415686,5.882353,-1.960784,-9.803922,2,0,2
0,12,10,4.235294,0,38.117647,0.007843,-0.023529,0.007843,-1.960784,1.960784,-5.882353,2,0,2
0,12,11,4.235294,0,38.117647,-0.007843,0.023529,-0.007843,-1.960784,-1.960784,-5.882353,2,0,2
0,12,12,4.235294,0,38.117647,-0.023529,0.007843,0.023529,-1.960784,-5.882353,-5.882353,2,0,2
0,12,13,2.823529,0,38.117647,0.007843,-0.007843,-0.039216,-1.960784,-1.960784,-1.960784,2,0,2
0,12,14,2.823529,0,38.117647,-0.023529,-0.007843,0.007843,-5.882353,1.960784,-1.960784,2,0,2
0,12,15,2.823529,0,38.117647,-0.023529,-0.039216,0.007843,-9.803922,-1.960784,-5.882353,2,0,2
0,12,16,1.411765,0,38.117647,0.023529,-0.14902,0.27451,-37.254902,17.647059,17.647059,2,0,2
0,12,17,1.411765,0,38.117647,0.133333,-0.196078,0.745098,-13.72549,9.803922,-1.960784,2,0,2
0,12,18,1.411765,-2.823529,38.117647,0.117647,-0.133333,0.635294,-1.960784,-41.176471,-9.803922,2,0,2
0,12,19,0,-4.235294,38.117647,0.117647,-0.054902,0.431373,-13.72549,-52.941176,-1.960784,2,0,2
0,12,20,0,-5.647059,38.117647,0.133333,0.023529,0.243137,-25.490196,-52.941176,1.960784,2,0,2
0,12,21,-2.823529,-7.058824,39.529412,0.133333,0.023529,0.086275,-37.254902,-49.019608,9.803922,2,0,2
0,12,22,-4.235294,-8.470588,39.529412,0.14902,0.054902,-0.039216,-56.862745,-37.254902,17.647059,2,0,2
0,12,23,-5.647059,-9.882353,40.941176,0.14902,-0.007843,-0.180392,-56.862745,-33.333333,21.568627,2,1,2
0,12,24,-7.058824,-9.882353,40.941176,0.14902,0.007843,-0.290196,-41.176471,-21.568627,21.568627,2,1,2
0,12,25,-8.470588,-11.294118,42.352941,0.164706,-0.070588,-0.337255,-33.333333,-29.411765,25.490196,2,1,2
0,12,26,-8.470588,-12.705882,42.352941,0.117647,-0.133333,-0.509804,-21.568627,-41.176471,17.647059,2,1,2
0,12,27,-2.823529,-16.941176,39.529412,-0.039216,-0.196078,-0.760784,229.411765,-143.137255,-76.470588,2,1,2
0,12,28,7.058824,-16.941176,39.529412,0.070588,0.211765,-1.090196,162.745098,-21.568627,-37.254902,2,1,2
0,12,29,5.647059,-14.117647,42.352941,0.227451,0.164706,-0.556863,-41.176471,76.470588,96.078431,2,1,2
0,13,0,5.647059,-14.117647,43.764706,-0.023529,-0.305882,-0.352941,-1.960784,-17.647059,41.176471,2,1,2
0,13,1,8.470588,-14.117647,42.352941,-0.007843,0.14902,-0.556863,92.156863,5.882353,-25.490196,2,1,2
0,13,2,8.470588,-12.705882,43.764706,0.070588,0.101961,-0.305882,17.647059,49.019608,29.411765,2,1,2
0,13,3,8.470588,-9.882353,45.176471,0.054902,-0.070588,-0.196078,-29.411765,64.705882,33.333333,2,1,2
0,13,4,7.058824,-7.058824,45.176471,-0.023529,-0.023529,-0.101961,-29.411765,76.470588,13.72549,2,1,2
0,13,5,7.058824,-4.235294,46.588235,-0.023529,0.086275,0.070588,-5.882353,72.54902,21.568627,2,1,2
0,13,6,5.647059,0,46.588235,-0.101961,0.023529,0.14902,-13.72549,72.54902,21.568627,2,1,2
0,13,7,5.647059,1.411765,48,-0.070588,-0.007843,0.384314,1.960784,56.862745,17.647059,2,1,2
0,13,8,7.058824,2.823529,48,-0.117647,-0.007843,0.337255,13.72549,25.490196,5.882353,2,1,2
0,13,9,7.058824,2.823529,48,-0.101961,-0.070588,0.352941,1.960784,13.72549,1.960784,2,0,0
0,13,10,5.647059,2.823529,48,-0.117647,0.007843,0.227451,-13.72549,5.882353,-1.960784,2,0,0
0,13,11,5.647059,2.823529,48,-0.054902,0.007843,0.258824,9.803922,-13.72549,-5.882353,2,0,0
0,13,12,7.058824,1.411765,48,-0.070588,0.007843,0.070588,21.568627,-25.490196,-9.803922,2,0,0
0,13,13,7.058824,1.411765,48,-0.054902,0.007843,-0.054902,-5.882353,-5.882353,-1.960784,2,0,0
0,13,14,7.058824,-15.529412,52.235294,1.984314,0.541176,0.964706,-5.882353,-500,123.529412,2,0,0
0,13,15,5.647059,-14.117647,52.235294,-0.619608,0.117647,0.886275,-1.960784,5.882353,-9.803922,2,0,0
0,13,16,7.058824,-14.117647,52.235294,0.007843,0.101961,-0.258824,1.960784,-9.803922,-5.882353,2,0,0
0,13,17,5.647059,-14.117647,52.235294,-0.117647,-0.023529,0.039216,-1.960784,-1.960784,-1.960784,2,0,0
0,13,18,5.647059,-14.117647,52.235294,0.007843,-0.023529,-0.023529,-1.960784,1.960784,-1.960784,2,0,0
0,13,19,5.647059,-12.705882,50.823529,0.007843,-0.054902,-0.007843,-1.960784,1.960784,-5.882353,2,0,0
0,13,20,5.647059,-12.705882,50.823529,-0.007843,-0.007843,0.007843,-1.960784,-5.882353,-1.960784,2,0,0
0,13,21,5.647059,-12.705882,50.823529,-0.007843,-0.007843,0.007843,-1.960784,-5.882353,-1.960784,2,0,0
0,13,22,5.647059,-12.705882,50.823529,-0.007843,-0.007843,-0.023529,-1.960784,-1.960784,-1.960784,2,0,0
0,13,23,5.647059,-12.705882,50.823529,-0.039216,-0.023529,0.070588,-9.803922,-5.882353,-17.647059,2,0,0
0,13,24,4.235294,-12.705882,50.823529,0.007843,-0.101961,0.227451,-29.411765,-25.490196,1.960784,2,0,0
0,13,25,4.235294,-14.117647,50.823529,-0.007843,-0.117647,0.368627,5.882353,-41.176471,-25.490196,2,0,0
0,13,26,5.647059,-15.529412,49.411765,-0.039216,-0.007843,0.164706,33.333333,-52.941176,-33.333333,2,0,0
0,13,27,5.647059,-16.941176,49.411765,-0.023529,0.054902,0.086275,17.647059,-37.254902,-17.647059,2,0,0
0,13,28,4.235294,-16.941176,48,-0.023529,-0.023529,0.054902,-33.333333,-9.803922,-9.803922,2,0,0
0,13,29,2.823529,-15.529412,48,0.007843,0.023529,0.117647,-45.098039,5.882353,-5.882353,2,0,0
0,13,30,1.411765,-15.529412,48,0.054902,-0.039216,0.164706,-29.411765,-1.960784,-5.882353,2,0,0
0,14,0,1.411765,-15.529412,48,0.054902,-0.086275,0.086275,-25.490196,-9.803922,-13.72549,2,0,0
0,14,1,0,-15.529412,48,0.101961,-0.070588,0.007843,-37.254902,-5.882353,-13.72549,2,0,0
0,14,2,-2.823529,-15.529412,46.588235,0.180392,-0.14902,-0.070588,-41.176471,5.882353,-13.72549,2,0,0
0,14,3,-4.235294,-15.529412,46.588235,0.258824,-0.164706,-0.086275,-41.176471,9.803922,-13.72549,2,0,0
0,14,4,-5.647059,-15.529412,46.588235,0.305882,-0.164706,-0.133333,-37.254902,9.803922,-13.72549,2,0,0
0,14,5,-7.058824,-15.529412,46.588235,0.337255,-0.14902,-0.14902,-37.254902,1.960784,-9.803922,2,0,0
0,14,6,-8.470588,-15.529412,46.588235,0.321569,-0.117647,-0.27451,-33.333333,-5.882353,-1.960784,2,0,0
0,14,7,-8.470588,-15.529412,46.588235,0.321569,-0.086275,-0.352941,-21.568627,1.960784,1.960784,2,0,0
0,14,8,-9.882353,-15.529412,46.588235,0.352941,-0.039216,-0.27451,-25.490196,5.882353,17.647059,2,0,0
0,14,9,-9.882353,-15.529412,48,0.337255,-0.054902,-0.196078,-13.72549,-9.803922,25.490196,2,0,0
0,14,10,-8.470588,-16.941176,49.411765,0.27451,-0.039216,-0.290196,17.647059,-21.568627,25.490196,2,0,0
0,14,11,-8.470588,-16.941176,50.823529,0.243137,-0.117647,-0.258824,21.568627,-25.490196,41.176471,2,0,0
0,14,12,-8.470588,-18.352941,50.823529,0.133333,-0.180392,-0.337255,17.647059,-25.490196,37.254902,2,0,0
0,14,13,-7.058824,-18.352941,52.235294,0.039216,-0.14902,-0.337255,13.72549,-17.647059,41.176471,2,0,0
0,14,14,-7.058824,-18.352941,53.647059,-0.039216,-0.196078,-0.352941,25.490196,-13.72549,33.333333,2,0,0
0,14,15,-7.058824,-18.352941,55.058824,-0.101961,-0.117647,-0.305882,13.72549,1.960784,29.411765,2,0,0
0,14,16,-5.647059,-16.941176,56.470588,-0.117647,-0.070588,-0.243137,25.490196,1.960784,21.568627,2,0,0
0,14,17,-4.235294,-15.529412,56.470588,-0.164706,-0.007843,-0.243137,37.254902,21.568627,13.72549,2,0,0
0,14,18,-2.823529,-14.117647,56.470588,-0.164706,-0.023529,-0.117647,33.333333,37.254902,17.647059,2,0,0
0,14,19,-2.823529,-12.705882,57.882353,-0.164706,-0.023529,-0.086275,25.490196,49.019608,17.647059,2,0,0
0,14,20,0,-9.882353,57.882353,-0.14902,-0.007843,0.070588,13.72549,56.862745,17.647059,2,0,0
0,14,21,0,-8.470588,59.294118,-0.164706,-0.086275,0.180392,1.960784,52.941176,21.568627,2,0,0
0,14,22,0,-5.647059,59.294118,-0.14902,-0.133333,0.290196,5.882353,45.098039,13.72549,2,0,0
0,14,23,0,-5.647059,59.294118,-0.14902,-0.133333,0.305882,13.72549,25.490196,5.882353,2,0,0
0,14,24,0,-4.235294,59.294118,-0.14902,-0.117647,0.227451,17.647059,9.803922,-1.960784,2,0,0
0,14,25,1.411765,-4.235294,59.294118,-0.14902,-0.070588,0.039216,9.803922,5.882353,-1.960784,2,0,0
0,14,26,4.235294,-8.470588,59.294118,0.086275,-0.14902,-0.572549,100,-131.372549,-29.411765,2,0,0
0,14,27,4.235294,-8.470588,57.882353,-0.368627,0.305882,0.290196,-17.647059,-29.411765,-33.333333,2,0,0
0,14,28,2.823529,-8.470588,57.882353,0.039216,-0.023529,0.023529,-1.960784,-1.960784,-5.882353,2,0,0
0,14,29,2.823529,-8.470588,57.882353,-0.007843,-0.023529,0.007843,-1.960784,-1.960784,-5.882353,2,0,0
0,15,0,2.823529,-8.470588,57.882353,-0.007843,0.023529,-0.007843,-1.960784,-1.960784,-5.882353,2,0,0
0,15,1,2.823529,-8.470588,57.882353,0.007843,-0.007843,-0.007843,-1.960784,-1.960784,-1.960784,2,0,0
0,15,2,2.823529,-8.470588,57.882353,-0.007843,-0.007843,0.007843,-1.960784,-1.960784,-1.960784,2,0,0
0,15,3,2.823529,-8.470588,57.882353,-0.007843,-0.007843,-0.007843,-1.960784,-1.960784,-1.960784,2,0,0
0,15,4,2.823529,-8.470588,57.882353,-0.007843,-0.007843,-0.007843,-1.960784,-1.960784,-1.960784,2,0,0
0,15,5,2.823529,-8.470588,57.882353,0.007843,-0.007843,-0.007843,-1.960784,-1.960784,-1.960784,2,0,0
0,15,6,2.823529,-8.470588,57.882353,-0.007843,-0.007843,-0.007843,-1.960784,-1.960784,-1.960784,2,0,0
0,15,7,2.823529,-8.470588,57.882353,0.007843,0.007843,-0.023529,-1.960784,-1.960784,-5.882353,2,0,0
0,15,8,2.823529,-7.058824,57.882353,-0.007843,-0.007843,-0.007843,-1.960784,-1.960784,-1.960784,2,0,0
0,15,9,2.823529,-7.058824,57.882353,-0.007843,-0.007843,-0.007843,-1.960784,-1.960784,-5.882353,2,0,0
0,15,10,2.823529,-7.058824,56.470588,-0.007843,0.007843,-0.007843,-1.960784,-1.960784,-1.960784,2,0,0
0,15,11,2.823529,-7.058824,56.470588,-0.007843,-0.007843,-0.007843,-1.960784,-1.960784,-1.960784,2,0,0
0,15,12,2.823529,-7.058824,56.470588,-0.007843,-0.007843,-0.007843,-1.960784,-1.960784,-1.960784,2,1,0
0,15,13,2.823529,-7.058824,56.470588,-0.007843,-0.007843,-0.007843,-1.960784,-1.960784,-1.960784,2,1,0
0,15,14,2.823529,-7.058824,56.470588,-0.007843,-0.007843,-0.007843,-1.960784,-1.960784,-1.960784,2,1,0
0,15,15,2.823529,-7.058824,56.470588,-0.007843,-0.023529,0.007843,-1.960784,-1.960784,-1.960784,2,1,0
0,15,16,1.411765,-7.058824,55.058824,-0.086275,-0.321569,-0.070588,-9.803922,1.960784,-45.098039,2,1,0
0,15,17,0,-5.647059,55.058824,-0.054902,-0.14902,0.415686,-52.941176,29.411765,-41.176471,2,1,0
0,15,18,-2.823529,-7.058824,52.235294,-0.070588,-0.164706,0.541176,-13.72549,-33.333333,-64.705882,2,1,0
0,15,19,0,-8.470588,49.411765,-0.101961,-0.211765,0.321569,45.098039,-56.862745,-100,2,1,0
0,15,20,1.411765,-9.882353,45.176471,-0.117647,-0.211765,0.14902,45.098039,-56.862745,-135.294118,2,1,0
0,15,21,1.411765,-9.882353,40.941176,-0.117647,0.039216,-0.054902,9.803922,-41.176471,-127.45098,2,1,0
0,15,22,1.411765,-9.882353,36.705882,-0.14902,-0.258824,-0.164706,-33.333333,-1.960784,-131.372549,2,1,0
0,15,23,-2.823529,-9.882353,31.058824,-0.117647,-0.007843,-0.164706,-45.098039,17.647059,-147.058824,2,1,0
0,15,24,-2.823529,-8.470588,26.823529,-0.039216,0.070588,-0.180392,-45.098039,9.803922,-127.45098,2,1,0
0,15,25,-4.235294,-8.470588,24,-0.023529,-0.007843,-0.180392,-45.098039,17.647059,-107.843137,2,1,0
0,15,26,-5.647059,-8.470588,21.176471,-0.023529,0.054902,-0.258824,-25.490196,-5.882353,-96.078431,2,1,0
0,15,27,-5.647059,-7.058824,18.352941,0.007843,0.023529,-0.27451,-5.882353,5.882353,-96.078431,2,1,0
0,15,28,-5.647059,-8.470588,15.529412,0.039216,0.007843,-0.211765,-5.882353,-9.803922,-84.313725,2,1,0
0,15,29,-5.647059,-8.470588,12.705882,0.039216,-0.007843,-0.321569,-17.647059,-1.960784,-84.313725,2,1,0
0,16,0,-7.058824,-7.058824,9.882353,0.054902,0.039216,-0.290196,-52.941176,29.411765,-72.54902,2,1,0
0,16,1,-8.470588,-5.647059,7.058824,0.054902,0.039216,-0.227451,-41.176471,45.098039,-76.470588,2,1,0
0,16,2,-8.470588,-4.235294,5.647059,0.101961,0.086275,-0.054902,-5.882353,33.333333,-76.470588,2,1,0
0,16,3,-7.058824,-2.823529,2.823529,0.101961,0.117647,-0.039216,41.176471,25.490196,-80.392157,2,1,0
0,16,4,-5.647059,-2.823529,0,0.054902,0.039216,-0.054902,33.333333,33.333333,-68.627451,2,1,0
0,16,5,-5.647059,0,-2.823529,0.039216,0.117647,0.007843,-5.882353,33.333333,-56.862745,2,1,0
0,16,6,-5.647059,1.411765,-4.235294,0.039216,0.14902,0.086275,-13.72549,33.333333,-41.176471,2,1,0
0,16,7,-4.235294,1.411765,-5.647059,-0.023529,0.14902,0.086275,9.803922,17.647059,-33.333333,2,1,0
0,16,8,-4.235294,2.823529,-7.058824,-0.039216,0.101961,0.054902,13.72549,17.647059,-33.333333,2,1,0
0,16,9,-4.235294,2.823529,-7.058824,-0.054902,0.133333,0.039216,-13.72549,17.647059,-9.803922,2,1,0
0,16,10,-4.235294,4.235294,-7.058824,-0.101961,0.054902,0.039216,-1.960784,21.568627,-17.647059,2,1,0
0,16,11,-4.235294,4.235294,-7.058824,-0.086275,0.070588,0.070588,5.882353,21.568627,-1.960784,2,1,0
0,16,12,-8.470588,0,-8.470588,-1.905882,0.352941,0.964706,-158.823529,-162.745098,-21.568627,2,1,0
0,16,13,-8.470588,0,-8.470588,-0.180392,0.101961,-0.101961,-1.960784,-17.647059,-9.803922,2,1,0
0,16,14,-8.470588,0,-8.470588,0.007843,-0.023529,-0.039216,-1.960784,-1.960784,-9.803922,2,1,0
0,16,15,-8.470588,0,-8.470588,-0.007843,0.007843,0.007843,-1.960784,1.960784,-9.803922,2,1,0
0,16,16,-8.470588,0,-8.470588,0.023529,-0.007843,-0.007843,-1.960784,-1.960784,-5.882353,2,1,0
0,16,17,-8.470588,0,-9.882353,-0.007843,0.007843,-0.007843,-1.960784,-1.960784,-9.803922,2,1,0
0,16,18,-7.058824,0,-9.882353,0.007843,0.023529,-0.023529,-1.960784,-1.960784,-1.960784,2,1,0
0,16,19,-7.058824,0,-9.882353,0.039216,0.007843,-0.070588,-1.960784,-1.960784,-1.960784,2,1,0
0,16,20,-7.058824,0,-9.882353,-0.007843,-0.007843,-0.007843,-1.960784,-1.960784,-1.960784,2,1,0
0,16,21,-7.058824,0,-9.882353,0.007843,-0.007843,-0.023529,-1.960784,-1.960784,-1.960784,2,1,0
0,16,22,-7.058824,0,-9.882353,-0.023529,-0.007843,0.023529,-1.960784,-1.960784,-1.960784,2,1,0
0,16,23,-7.058824,0,-9.882353,0.007843,-0.007843,-0.023529,-1.960784,-1.960784,-1.960784,2,1,0
0,16,24,-7.058824,0,-9.882353,-0.007843,-0.007843,-0.007843,-1.960784,-1.960784,-1.960784,2,1,0
0,16,25,-7.058824,0,-9.882353,-0.007843,-0.007843,-0.007843,-1.960784,-1.960784,-1.960784,2,1,0
0,16,26,-7.058824,0,-9.882353,-0.007843,-0.007843,-0.007843,-1.960784,-1.960784,-1.960784,2,1,0
0,16,27,-7.058824,0,-9.882353,-0.007843,-0.007843,-0.007843,-1.960784,-1.960784,-1.960784,2,1,0
0,16,28,-7.058824,0,-9.882353,-0.007843,-0.007843,-0.007843,-1.960784,-1.960784,-1.960784,2,1,0
0,16,29,-7.058824,0,-9.882353,-0.007843,-0.007843,-0.007843,-1.960784,-1.960784,-1.960784,2,1,0
0,16,30,-7.058824,0,-9.882353,-0.007843,-0.007843,-0.007843,-1.960784,-1.960784,-1.960784,2,2,0
0,17,0,-7.058824,0,-9.882353,-0.007843,-0.007843,-0.007843,-1.960784,-1.960784,-1.960784,2,2,0
0,17,1,-5.647059,0,-9.882353,-0.007843,-0.007843,-0.007843,-1.960784,-1.960784,-1.960784,2,2,0
0,17,2,-5.647059,0,-9.882353,-0.007843,-0.007843,0.007843,-1.960784,-1.960784,-1.960784,2,2,0
0,17,3,-5.647059,0,-9.882353,-0.007843,-0.007843,-0.007843,-1.960784,-1.960784,-1.960784,2,2,0
0,17,4,-5.647059,0,-9.882353,-0.007843,-0.007843,-0.007843,-1.960784,-1.960784,-1.960784,2,2,0
0,17,5,-5.647059,0,-9.882353,-0.007843,-0.007843,0.007843,-1.960784,-1.960784,-1.960784,2,2,0
0,17,6,-5.647059,0,-9.882353,0.086275,-0.133333,-0.023529,-5.882353,1.960784,-29.411765,2,2,0
0,17,7,-7.058824,0,-12.705882,-0.117647,-0.086275,0.007843,-9.803922,5.882353,-64.705882,2,2,0
0,17,8,-7.058824,1.411765,-12.705882,-0.007843,-0.180392,0.133333,-21.568627,37.254902,-33.333333,2,2,0
0,17,9,-7.058824,1.411765,-15.529412,-0.101961,-0.243137,0.384314,-5.882353,17.647059,-52.941176,2,2,0
0,17,10,-5.647059,1.411765,-16.941176,-0.039216,-0.133333,0.290196,37.254902,-9.803922,-68.627451,2,2,0
0,17,11,-4.235294,1.411765,-19.764706,-0.086275,-0.180392,0.054902,45.098039,-21.568627,-68.627451,2,2,0
0,17,12,-4.235294,1.411765,-21.176471,-0.117647,-0.180392,-0.133333,29.411765,-13.72549,-60.784314,2,2,0
0,17,13,-2.823529,1.411765,-22.588235,-0.086275,-0.117647,-0.117647,13.72549,-5.882353,-60.784314,2,2,0
0,17,14,-2.823529,0,-25.411765,-0.133333,-0.070588,-0.211765,9.803922,-13.72549,-64.705882,2,2,0
0,17,15,-2.823529,1.411765,-26.823529,-0.086275,-0.007843,-0.258824,5.882353,-1.960784,-56.862745,2,1,0
0,17,16,-2.823529,1.411765,-28.235294,-0.039216,0.086275,-0.211765,-1.960784,5.882353,-49.019608,2,1,0
0,17,17,-2.823529,1.411765,-29.647059,0.007843,0.023529,-0.117647,-5.882353,-1.960784,-41.176471,2,1,0
0,17,18,-2.823529,1.411765,-31.058824,-0.054902,0.007843,-0.14902,-1.960784,-1.960784,-52.941176,2,1,0
0,17,19,-2.823529,1.411765,-32.470588,0.023529,0.180392,-0.086275,-9.803922,1.960784,-45.098039,2,1,0
0,17,20,-2.823529,1.411765,-33.882353,-0.054902,0.101961,-0.039216,1.960784,-9.803922,-45.098039,2,1,0
0,17,21,-2.823529,1.411765,-35.294118,-0.054902,0.243137,-0.117647,-9.803922,-1.960784,-41.176471,2,1,0
0,17,22,-2.823529,1.411765,-36.705882,-0.023529,0.27451,-0.101961,-5.882353,9.803922,-33.333333,2,1,0
0,17,23,-2.823529,1.411765,-36.705882,-0.007843,0.258824,-0.070588,-5.882353,13.72549,-17.647059,2,1,0
0,17,24,-2.823529,2.823529,-38.117647,-0.023529,0.243137,-0.023529,-13.72549,13.72549,-17.647059,2,1,0
0,17,25,-2.823529,2.823529,-38.117647,-0.039216,0.196078,0.007843,-21.568627,17.647059,-5.882353,2,1,0
0,17,26,-2.823529,2.823529,-38.117647,-0.039216,0.196078,0.023529,-13.72549,9.803922,-5.882353,2,1,0
0,17,27,-2.823529,2.823529,-38.117647,-0.054902,0.133333,0.039216,-13.72549,5.882353,-1.960784,2,1,0
0,17,28,-2.823529,4.235294,-38.117647,-0.070588,0.117647,0.007843,-9.803922,1.960784,1.960784,2,1,0
0,17,29,-2.823529,-11.294118,-36.705882,1.984314,0.870588,0.964706,1.960784,-425.490196,25.490196,2,1,0
0,18,0,-2.823529,-16.941176,-35.294118,-1.215686,0.196078,0.964706,-29.411765,-209.803922,49.019608,2,1,0
0,18,1,-2.823529,-16.941176,-35.294118,-0.133333,-0.070588,0.039216,-1.960784,-5.882353,1.960784,2,0,0
0,18,2,-2.823529,-15.529412,-35.294118,-0.023529,-0.007843,-0.007843,-1.960784,-5.882353,-1.960784,2,0,0
0,18,3,-2.823529,-15.529412,-35.294118,-0.007843,-0.007843,-0.007843,-1.960784,-5.882353,-1.960784,2,0,0
0,18,4,-2.823529,-15.529412,-35.294118,-0.007843,-0.007843,-0.023529,-1.960784,-1.960784,-1.960784,2,0,0
0,18,5,-2.823529,-15.529412,-35.294118,-0.007843,0.007843,0.007843,-1.960784,-1.960784,-1.960784,2,0,0
0,18,6,-2.823529,-15.529412,-35.294118,-0.007843,-0.007843,-0.007843,-1.960784,-1.960784,-1.960784,2,0,0
0,18,7,-2.823529,-15.529412,-35.294118,-0.007843,-0.007843,-0.007843,-1.960784,-1.960784,-1.960784,2,0,0
0,18,8,-2.823529,-14.117647,-35.294118,-0.007843,-0.007843,-0.007843,-1.960784,-1.960784,-1.960784,2,0,0
0,18,9,-2.823529,-14.117647,-35.294118,-0.007843,-0.007843,-0.007843,-1.960784,-1.960784,-1.960784,2,0,0
0,18,10,-2.823529,-14.117647,-35.294118,0.007843,-0.007843,-0.039216,-1.960784,-1.960784,-1.960784,2,0,0
0,18,11,-2.823529,-14.117647,-35.294118,0.023529,0.023529,-0.023529,-1.960784,-1.960784,13.72549,2,0,0
0,18,12,-2.823529,-14.117647,-33.882353,-0.023529,-0.023529,-0.007843,-1.960784,-1.960784,5.882353,2,0,0
0,18,13,-2.823529,-14.117647,-33.882353,-0.023529,-0.007843,-0.007843,-1.960784,-1.960784,-1.960784,2,0,0
0,18,14,-2.823529,-12.705882,-33.882353,0.007843,-0.007843,-0.023529,-1.960784,-1.960784,-1.960784,2,0,0
0,18,15,-2.823529,-12.705882,-33.882353,0.007843,0.007843,-0.023529,-1.960784,1.960784,-1.960784,2,0,0
0,18,16,-2.823529,-12.705882,-32.470588,0.117647,0.070588,-0.007843,-1.960784,-1.960784,33.333333,2,0,0
0,18,17,-2.823529,-12.705882,-32.470588,-0.070588,-0.086275,-0.007843,-1.960784,-1.960784,37.254902,2,1,1
0,18,18,0,-11.294118,-31.058824,-0.039216,-0.007843,0.039216,29.411765,17.647059,29.411765,2,1,1
0,18,19,1.411765,-11.294118,-29.647059,-0.133333,0.007843,0.556863,37.254902,21.568627,29.411765,2,1,1
0,18,20,2.823529,-11.294118,-28.235294,-0.101961,0.243137,0.337255,37.254902,-45.098039,33.333333,2,1,1
0,18,21,2.823529,-12.705882,-26.823529,-0.054902,0.290196,0.27451,21.568627,-45.098039,64.705882,2,1,1
0,18,22,4.235294,-14.117647,-24,-0.086275,0.227451,0.117647,25.490196,-56.862745,84.313725,2,1,1
0,18,23,5.647059,-15.529412,-19.764706,-0.070588,0.227451,0.070588,17.647059,-52.941176,92.156863,2,1,1
0,18,24,5.647059,-16.941176,-16.941176,-0.086275,0.196078,-0.133333,1.960784,-45.098039,103.921569,2,1,1
0,18,25,5.647059,-16.941176,-14.117647,-0.039216,0.211765,-0.14902,9.803922,-25.490196,80.392157,2,1,1
0,18,26,7.058824,-16.941176,-11.294118,0.023529,0.27451,-0.27451,9.803922,-17.647059,107.843137,2,1,1
0,18,27,7.058824,-18.352941,-5.647059,0.039216,0.14902,-0.211765,9.803922,-13.72549,139.215686,2,1,1
0,18,28,7.058824,-18.352941,0,0.039216,-0.039216,-0.258824,17.647059,-17.647059,123.529412,2,1,1
0,18,29,8.470588,-18.352941,4.235294,0.086275,0.086275,-0.352941,5.882353,-1.960784,131.372549,2,1,1
0,19,0,7.058824,-16.941176,8.470588,0.039216,-0.164706,-0.258824,-13.72549,5.882353,135.294118,2,1,1
0,19,1,7.058824,-16.941176,12.705882,0.117647,-0.086275,-0.258824,-5.882353,-1.960784,111.764706,2,1,1
0,19,2,5.647059,-16.941176,16.941176,0.054902,-0.164706,-0.196078,-13.72549,5.882353,123.529412,2,1,1
0,19,3,5.647059,-15.529412,18.352941,0.133333,-0.258824,-0.14902,13.72549,13.72549,68.627451,2,1,1
0,19,4,5.647059,-14.117647,21.176471,0.101961,0.023529,-0.14902,1.960784,33.333333,76.470588,2,1,1
0,19,5,5.647059,-14.117647,24,0.101961,-0.258824,0.023529,5.882353,33.333333,56.862745,2,1,1
0,19,6,5.647059,-12.705882,24,0.101961,-0.101961,-0.007843,13.72549,25.490196,29.411765,2,1,1
0,19,7,5.647059,-11.294118,25.411765,0.086275,-0.180392,0.023529,1.960784,17.647059,25.490196,2,1,1
0,19,8,5.647059,-11.294118,25.411765,0.054902,-0.101961,-0.007843,-1.960784,21.568627,5.882353,2,1,1
0,19,9,5.647059,-9.882353,26.823529,0.054902,-0.070588,0.023529,-13.72549,21.568627,13.72549,2,1,1
0,19,10,4.235294,-8.470588,26.823529,0.023529,-0.086275,0.023529,-9.803922,17.647059,13.72549,2,1,1
0,19,11,4.235294,-8.470588,26.823529,0.007843,-0.039216,0.007843,-5.882353,21.568627,9.803922,2,1,1
0,19,12,4.235294,-7.058824,28.235294,-0.023529,-0.039216,-0.007843,-1.960784,17.647059,13.72549,2,1,1
0,19,13,4.235294,-7.058824,28.235294,-0.086275,0.007843,-0.086275,-1.960784,25.490196,17.647059,2,1,1
0,19,14,1.411765,-14.117647,26.823529,1.952941,-0.415686,0.996078,5.882353,233.333333,-60.784314,2,1,1
0,19,15,1.411765,-14.117647,26.823529,-0.070588,-0.196078,0.039216,-1.960784,1.960784,1.960784,2,1,1
0,19,16,1.411765,-14.117647,26.823529,0.039216,-0.007843,-0.007843,-1.960784,-1.960784,-1.960784,2,1,1
0,19,17,1.411765,-14.117647,26.823529,0.039216,-0.007843,-0.039216,-1.960784,-1.960784,-1.960784,2,1,1
0,19,18,1.411765,-14.117647,26.823529,0.023529,-0.007843,-0.039216,-1.960784,-1.960784,-1.960784,2,1,1
0,19,19,0,-14.117647,26.823529,0.007843,-0.007843,-0.039216,-1.960784,-1.960784,-1.960784,2,1,1
0,19,20,0,-12.705882,26.823529,-0.007843,-0.007843,-0.007843,-1.960784,-1.960784,-1.960784,2,1,1
0,19,21,0,-12.705882,26.823529,-0.007843,-0.007843,-0.007843,-1.960784,-1.960784,-1.960784,2,1,1
0,19,22,0,-12.705882,26.823529,-0.007843,-0.007843,-0.007843,-1.960784,-1.960784,-1.960784,2,1,1
0,19,23,0,-12.705882,26.823529,-0.007843,-0.007843,-0.007843,-1.960784,-1.960784,-1.960784,2,1,1
0,19,24,0,-12.705882,26.823529,-0.007843,-0.007843,-0.007843,-1.960784,-1.960784,-1.960784,2,1,1
0,19,25,0,-12.705882,26.823529,-0.007843,-0.007843,-0.007843,-1.960784,-1.960784,-1.960784,2,1,1
0,19,26,0,-11.294118,26.823529,-0.007843,-0.007843,-0.007843,-1.960784,-1.960784,-1.960784,2,1,1
0,19,27,0,-11.294118,26.823529,-0.007843,-0.007843,-0.007843,-1.960784,-1.960784,-1.960784,2,1,1
0,19,28,0,-11.294118,26.823529,-0.007843,-0.007843,-0.007843,-1.960784,-1.960784,-1.960784,2,1,1
0,19,29,0,-11.294118,26.823529,-0.007843,-0.007843,-0.007843,-1.960784,-1.960784,-1.960784,2,1,1
0,19,30,0,-11.294118,26.823529,-0.007843,-0.007843,-0.007843,-1.960784,-1.960784,-1.960784,2,1,1
0,20,0,0,-11.294118,26.823529,-0.007843,-0.007843,-0.007843,-1.960784,-1.960784,-1.960784,2,1,1
0,20,1,0,-11.294118,26.823529,-0.007843,-0.007843,-0.007843,-1.960784,-1.960784,-1.960784,2,1,1
0,20,2,0,-11.294118,26.823529,-0.007843,-0.007843,-0.007843,-1.960784,-1.960784,-1.960784,2,1,1
0,20,3,0,-9.882353,26.823529,-0.007843,-0.007843,-0.007843,-1.960784,-1.960784,-1.960784,2,1,1
0,20,4,0,-9.882353,26.823529,-0.007843,-0.007843,-0.007843,-1.960784,-1.960784,-1.960784,2,2,1
0,20,5,0,-9.882353,26.823529,0.023529,0.054902,0.039216,-1.960784,-5.882353,1.960784,2,2,1
0,20,6,0,-9.882353,26.823529,-0.023529,0.023529,-0.054902,-1.960784,5.882353,25.490196,2,2,1
0,20,7,0,-9.882353,28.235294,0.023529,-0.007843,0.039216,-17.647059,1.960784,9.803922,2,2,1
0,20,8,-2.823529,-8.470588,28.235294,0.054902,-0.023529,0.196078,-41.176471,25.490196,21.568627,2,2,1
0,20,9,-2.823529,-8.470588,28.235294,0.054902,-0.039216,0.321569,-17.647059,-5.882353,5.882353,2,2,1
0,20,10,-2.823529,-8.470588,29.647059,0.101961,0.023529,0.27451,-1.960784,-13.72549,1.960784,2,2,1
0,20,11,-2.823529,-9.882353,29.647059,0.133333,-0.023529,0.27451,-1.960784,-29.411765,13.72549,2,2,1
0,20,12,-4.235294,-11.294118,31.058824,0.133333,0.007843,0.196078,-13.72549,-33.333333,21.568627,2,2,1
0,20,13,-4.235294,-11.294118,31.058824,0.164706,0.023529,0.164706,-17.647059,-37.254902,21.568627,2,2,1
0,20,14,-4.235294,-12.705882,32.470588,0.133333,0.023529,0.054902,-9.803922,-49.019608,25.490196,2,2,1
0,20,15,-4.235294,-14.117647,32.470588,0.101961,0.007843,-0.101961,-5.882353,-37.254902,29.411765,2,2,1
0,20,16,-4.235294,-15.529412,33.882353,0.101961,-0.023529,-0.211765,-9.803922,-25.490196,33.333333,2,2,1
0,20,17,-4.235294,-15.529412,35.294118,0.070588,-0.023529,-0.305882,-13.72549,-17.647059,37.254902,2,2,1
0,20,18,-5.647059,-15.529412,36.705882,0.054902,-0.070588,-0.368627,-17.647059,-17.647059,41.176471,2,2,1
0,20,19,-5.647059,-15.529412,38.117647,-0.023529,-0.117647,-0.478431,-5.882353,-13.72549,37.254902,2,2,1
0,20,20,-5.647059,-15.529412,39.529412,-0.054902,-0.133333,-0.478431,9.803922,-5.882353,25.490196,2,1,1
0,20,21,-5.647059,-15.529412,39.529412,-0.070588,-0.070588,-0.431373,13.72549,-1.960784,25.490196,2,1,1
0,20,22,-4.235294,-14.117647,40.941176,-0.117647,-0.054902,-0.368627,17.647059,5.882353,29.411765,2,1,1
0,20,23,-4.235294,-14.117647,42.352941,-0.117647,-0.086275,-0.258824,29.411765,17.647059,21.568627,2,1,1
0,20,24,-2.823529,-12.705882,42.352941,-0.14902,-0.070588,-0.227451,33.333333,33.333333,9.803922,2,1,1
0,20,25,0,-9.882353,42.352941,-0.054902,-0.070588,-0.023529,21.568627,45.098039,13.72549,2,1,1
0,20,26,0,-8.470588,43.764706,-0.086275,-0.086275,0.039216,17.647059,41.176471,9.803922,2,1,1
0,20,27,0,-7.058824,43.764706,-0.023529,-0.054902,0.196078,13.72549,41.176471,5.882353,2,1,1
0,20,28,1.411765,-7.058824,43.764706,-0.039216,-0.039216,0.211765,5.882353,17.647059,5.882353,2,1,1
0,20,29,1.411765,-5.647059,43.764706,-0.039216,-0.007843,0.196078,9.803922,17.647059,1.960784,2,1,1
0,21,0,1.411765,-5.647059,43.764706,-0.039216,0.007843,0.180392,17.647059,5.882353,1.960784,2,1,1
0,21,1,2.823529,-21.176471,45.176471,1.984314,-0.086275,0.964706,41.176471,-500,56.862745,2,1,1
0,21,2,2.823529,-19.764706,46.588235,-0.52549,0.054902,0.305882,-1.960784,-5.882353,1.960784,2,1,1
0,21,3,2.823529,-19.764706,46.588235,-0.039216,0.007843,-0.023529,1.960784,-5.882353,-1.960784,2,1,1
0,21,4,2.823529,-19.764706,46.588235,-0.039216,-0.007843,0.023529,-1.960784,-1.960784,-1.960784,2,1,1
0,21,5,2.823529,-18.352941,46.588235,-0.007843,-0.023529,-0.023529,-1.960784,-1.960784,-1.960784,2,1,1
0,21,6,2.823529,-18.352941,46.588235,0.007843,-0.007843,-0.023529,-1.960784,-1.960784,-1.960784,2,1,1
0,21,7,2.823529,-18.352941,46.588235,-0.007843,-0.007843,-0.007843,-1.960784,-1.960784,-1.960784,2,1,1
0,21,8,2.823529,-18.352941,46.588235,-0.007843,-0.007843,-0.007843,-1.960784,-1.960784,-1.960784,2,1,1
0,21,9,2.823529,-16.941176,46.588235,-0.007843,-0.007843,-0.007843,-1.960784,-1.960784,-1.960784,2,1,1
0,21,10,2.823529,-16.941176,46.588235,0.007843,-0.007843,-0.023529,-1.960784,-1.960784,-1.960784,2,1,1
0,21,11,2.823529,-16.941176,46.588235,-0.007843,-0.007843,0.007843,-1.960784,-1.960784,-1.960784,2,1,1
0,21,12,2.823529,-16.941176,46.588235,0.007843,-0.007843,-0.023529,-1.960784,-1.960784,-1.960784,2,1,1
0,21,13,2.823529,-16.941176,46.588235,-0.007843,-0.007843,-0.007843,-1.960784,-1.960784,-1.960784,2,1,1
0,21,14,2.823529,-15.529412,46.588235,-0.007843,-0.007843,-0.007843,-1.960784,-1.960784,-1.960784,2,1,1
0,21,15,2.823529,-15.529412,46.588235,-0.007843,-0.007843,-0.007843,-1.960784,-1.960784,-1.960784,2,1,1
0,21,16,2.823529,-15.529412,46.588235,-0.007843,-0.023529,-0.007843,-1.960784,1.960784,-1.960784,2,1,1
0,21,17,1.411765,-15.529412,46.588235,-0.007843,-0.007843,0.007843,-1.960784,-1.960784,-1.960784,2,1,1
0,21,18,1.411765,-14.117647,46.588235,-0.007843,-0.007843,-0.007843,-1.960784,-1.960784,-1.960784,2,1,1
0,21,19,1.411765,-14.117647,46.588235,-0.007843,-0.007843,-0.007843,-1.960784,-1.960784,-1.960784,2,1,1
0,21,20,1.411765,-14.117647,46.588235,0.007843,0.023529,0.023529,-1.960784,-1.960784,-1.960784,2,1,1
0,21,21,1.411765,-14.117647,46.588235,-0.086275,0.039216,0.023529,-1.960784,-5.882353,-1.960784,2,1,1
0,21,22,1.411765,-14.117647,46.588235,-0.258824,-0.101961,0.180392,-21.568627,-1.960784,9.803922,2,2,1
0,21,23,0,-14.117647,46.588235,-0.086275,-0.054902,0.572549,-25.490196,-5.882353,-5.882353,2,2,1
0,21,24,1.411765,-15.529412,46.588235,-0.133333,0.070588,0.447059,13.72549,-52.941176,-13.72549,2,2,1
0,21,25,2.823529,-15.529412,45.176471,-0.196078,0.070588,0.14902,37.254902,-52.941176,-17.647059,2,2,1
0,21,26,2.823529,-16.941176,45.176471,-0.196078,0.117647,-0.070588,13.72549,-25.490196,-9.803922,2,2,1
0,21,27,2.823529,-15.529412,45.176471,-0.211765,0.070588,-0.196078,-9.803922,-5.882353,1.960784,2,2,1
0,21,28,1.411765,-15.529412,45.176471,-0.180392,-0.054902,-0.164706,-9.803922,13.72549,-13.72549,2,2,1
0,21,29,1.411765,-14.117647,43.764706,-0.133333,-0.133333,-0.117647,-13.72549,21.568627,-25.490196,2,2,1
0,22,0,0,-12.705882,43.764706,-0.117647,-0.227451,-0.023529,-29.411765,33.333333,-29.411765,2,2,1
0,22,1,-2.823529,-9.882353,40.941176,-0.039216,-0.243137,0.164706,-37.254902,52.941176,-56.862745,2,2,1
0,22,2,-4.235294,-8.470588,39.529412,0.117647,-0.243137,0.4,-52.941176,37.254902,-49.019608,2,2,1
0,22,3,-5.647059,-8.470588,38.117647,0.086275,-0.258824,0.258824,-33.333333,13.72549,-72.54902,2,2,1
0,22,4,-7.058824,-7.058824,35.294118,0.14902,-0.180392,0.164706,-45.098039,21.568627,-72.54902,2,2,1
0,22,5,-8.470588,-7.058824,32.470588,0.180392,-0.196078,0.070588,-60.784314,17.647059,-72.54902,2,2,1
0,22,6,-11.294118,-7.058824,29.647059,0.196078,-0.133333,-0.070588,-64.705882,9.803922,-76.470588,2,2,1
0,22,7,-12.705882,-7.058824,28.235294,0.211765,-0.117647,-0.243137,-52.941176,5.882353,-64.705882,2,2,1
0,22,8,-14.117647,-7.058824,26.823529,0.227451,-0.117647,-0.384314,-37.254902,-1.960784,-60.784314,2,0,1
0,22,9,-14.117647,-7.058824,24,0.196078,-0.117647,-0.541176,-29.411765,-13.72549,-52.941176,2,0,1
0,22,10,-15.529412,-8.470588,24,0.196078,0.007843,-0.619608,-33.333333,-13.72549,-29.411765,2,0,1
0,22,11,-15.529412,-9.882353,24,0.164706,0.007843,-0.635294,-5.882353,-21.568627,-9.803922,2,0,1
0,22,12,-14.117647,-11.294118,22.588235,0.117647,-0.023529,-0.619608,21.568627,-25.490196,-5.882353,2,0,1
0,22,13,-12.705882,-11.294118,22.588235,0.039216,0.007843,-0.572549,33.333333,-29.411765,-5.882353,2,0,1
0,22,14,-11.294118,-11.294118,24,-0.007843,0.054902,-0.478431,33.333333,-1.960784,9.803922,2,0,1
0,22,15,-9.882353,-9.882353,24,-0.023529,-0.054902,-0.243137,37.254902,17.647059,9.803922,2,0,1
0,22,16,-8.470588,-9.882353,24,-0.054902,-0.039216,-0.070588,60.784314,17.647059,-5.882353,2,0,1
0,22,17,-5.647059,-8.470588,24,-0.039216,-0.007843,0.117647,56.862745,13.72549,1.960784,2,0,1
0,22,18,-2.823529,-8.470588,24,-0.039216,-0.039216,0.196078,72.54902,5.882353,-9.803922,2,0,1
0,22,19,0,-8.470588,24,-0.070588,-0.039216,0.227451,49.019608,1.960784,-1.960784,2,0,1
0,22,20,0,-7.058824,24,-0.039216,-0.007843,0.321569,21.568627,13.72549,-5.882353,2,0,1
0,22,21,1.411765,-7.058824,24,-0.023529,0.054902,0.321569,17.647059,5.882353,-1.960784,2,0,1
0,22,22,1.411765,-7.058824,24,-0.023529,-0.039216,0.321569,9.803922,1.960784,-1.960784,2,0,1
0,22,23,1.411765,-7.058824,24,-0.023529,-0.007843,0.243137,5.882353,-1.960784,-5.882353,2,0,1
0,22,24,2.823529,-7.058824,22.588235,-0.023529,0.039216,0.101961,5.882353,-1.960784,-5.882353,2,0,1
0,22,25,2.823529,-7.058824,24,1.32549,-0.4,-0.431373,9.803922,5.882353,9.803922,2,0,1
0,22,26,2.823529,-7.058824,24,-0.054902,0.070588,0.133333,-1.960784,1.960784,-1.960784,2,0,1
0,22,27,1.411765,-7.058824,24,0.054902,-0.023529,-0.023529,-1.960784,-1.960784,-1.960784,2,0,1
0,22,28,1.411765,-7.058824,24,0.054902,0.007843,-0.007843,-5.882353,1.960784,-1.960784,2,0,1
0,22,29,1.411765,-7.058824,24,0.054902,-0.007843,-0.023529,-1.960784,-1.960784,-1.960784,2,0,1
0,23,0,1.411765,-7.058824,24,0.007843,0.007843,-0.007843,-5.882353,-1.960784,-1.960784,2,0,1
0,23,1,1.411765,-7.058824,24,-0.007843,0.007843,-0.007843,-5.882353,1.960784,-1.960784,2,0,1
0,23,2,1.411765,-7.058824,24,-0.133333,-0.054902,0.117647,-9.803922,-9.803922,-5.882353,2,0,1
0,23,3,0,-5.647059,22.588235,-0.070588,-0.227451,0.368627,-41.176471,21.568627,-9.803922,2,0,1
0,23,4,-2.823529,-5.647059,22.588235,-0.117647,-0.007843,0.682353,-21.568627,5.882353,-17.647059,2,0,1
0,23,5,-2.823529,-5.647059,22.588235,-0.117647,-0.196078,0.572549,-9.803922,-13.72549,-21.568627,2,0,1
0,23,6,-2.823529,-7.058824,21.176471,-0.133333,-0.180392,0.352941,-9.803922,-33.333333,-45.098039,2,0,1
0,23,7,-4.235294,-7.058824,19.764706,-0.164706,-0.117647,0.086275,-29.411765,-29.411765,-45.098039,2,0,1
0,23,8,-5.647059,-7.058824,16.941176,-0.133333,-0.133333,-0.070588,-45.098039,-13.72549,-49.019608,2,0,1
0,23,9,-7.058824,-7.058824,15.529412,-0.117647,-0.086275,-0.227451,-37.254902,-13.72549,-60.784314,2,0,1
0,23,10,-8.470588,-7.058824,14.117647,-0.117647,-0.070588,-0.4,-37.254902,-9.803922,-64.705882,2,1,1
0,23,11,-9.882353,-7.058824,11.294118,-0.070588,-0.054902,-0.494118,-37.254902,-1.960784,-64.705882,2,1,1
0,23,12,-9.882353,-7.058824,9.882353,-0.039216,-0.039216,-0.541176,-41.176471,5.882353,-68.627451,2,1,1
0,23,13,-11.294118,-5.647059,7.058824,0.023529,0.007843,-0.572549,-21.568627,9.803922,-64.705882,2,1,1
0,23,14,-11.294118,-5.647059,5.647059,0.039216,-0.007843,-0.572549,-13.72549,21.568627,-60.784314,2,1,1
0,23,15,-11.294118,-4.235294,4.235294,0.086275,-0.007843,-0.431373,-9.803922,29.411765,-52.941176,2,1,1
0,23,16,-11.294118,-4.235294,2.823529,0.117647,-0.007843,-0.321569,-13.72549,33.333333,-37.254902,2,1,1
0,23,17,-11.294118,-2.823529,1.411765,0.117647,-0.054902,-0.196078,5.882353,25.490196,-37.254902,2,1,1
0,23,18,-9.882353,0,0,0.086275,-0.023529,-0.14902,29.411765,25.490196,-37.254902,2,1,1
0,23,19,-8.470588,0,-2.823529,0.133333,-0.054902,-0.039216,33.333333,17.647059,-33.333333,2,1,1
0,23,20,-7.058824,0,-2.823529,0.070588,-0.007843,-0.101961,33.333333,21.568627,-29.411765,2,1,1
0,23,21,-5.647059,1.411765,-4.235294,0.101961,-0.007843,0.054902,37.254902,25.490196,-21.568627,2,1,1
0,23,22,-4.235294,1.411765,-4.235294,0.070588,-0.023529,0.086275,33.333333,21.568627,-13.72549,2,1,1
0,23,23,-4.235294,2.823529,-4.235294,0.054902,-0.039216,0.227451,25.490196,29.411765,-17.647059,2,1,1
0,23,24,-2.823529,2.823529,-5.647059,0.023529,0.039216,0.211765,21.568627,13.72549,-9.803922,2,1,1
0,23,25,-2.823529,4.235294,-5.647059,0.039216,-0.039216,0.290196,21.568627,13.72549,-1.960784,2,1,1
0,23,26,0,2.823529,-5.647059,-0.023529,-0.023529,0.196078,17.647059,-1.960784,-5.882353,2,0,0
0,23,27,0,-2.823529,-5.647059,1.952941,-0.321569,-0.776471,29.411765,-84.313725,-25.490196,2,0,0
0,23,28,0,-2.823529,-5.647059,-0.243137,-0.054902,0.52549,5.882353,-5.882353,-1.960784,2,0,0
0,23,29,1.411765,-2.823529,-5.647059,0.039216,0.023529,-0.054902,1.960784,-13.72549,-1.960784,2,0,0
0,23,30,1.411765,-2.823529,-5.647059,-0.007843,0.007843,0.007843,-1.960784,-1.960784,-1.960784,2,0,0
0,24,0,1.411765,-2.823529,-5.647059,-0.007843,0.007843,0.023529,-1.960784,-1.960784,-1.960784,2,0,0
0,24,1,1.411765,-2.823529,-4.235294,0.007843,0.337255,0.101961,-9.803922,-1.960784,37.254902,2,0,0
0,24,2,1.411765,-2.823529,-2.823529,0.196078,0.039216,0.619608,5.882353,9.803922,45.098039,2,0,0
0,24,3,0,-2.823529,0,0.211765,0.117647,0.792157,-21.568627,-9.803922,41.176471,2,0,0
0,24,4,-2.823529,-4.235294,1.411765,0.196078,0.164706,0.603922,-49.019608,-41.176471,49.019608,2,0,0
0,24,5,-2.823529,-7.058824,2.823529,0.101961,0.14902,0.196078,-25.490196,-80.392157,52.941176,2,0,0
0,24,6,-2.823529,-9.882353,5.647059,0.007843,0.086275,-0.258824,1.960784,-80.392157,56.862745,2,0,0
0,24,7,0,-11.294118,7.058824,-0.054902,0.054902,-0.619608,9.803922,-64.705882,60.784314,2,0,0
0,24,8,0,-11.294118,9.882353,-0.086275,0.054902,-0.870588,13.72549,-21.568627,72.54902,2,0,0
0,24,9,0,-9.882353,11.294118,-0.070588,-0.054902,-0.870588,5.882353,13.72549,72.54902,2,0,0
0,24,10,0,-8.470588,14.117647,-0.117647,-0.070588,-0.776471,-1.960784,33.333333,68.627451,2,0,0
0,24,11,0,-5.647059,16.941176,-0.086275,-0.133333,-0.447059,-5.882353,45.098039,68.627451,2,1,0
0,24,12,0,-4.235294,18.352941,-0.14902,-0.258824,-0.27451,13.72549,29.411765,45.098039,2,1,0
0,24,13,1.411765,-2.823529,18.352941,-0.086275,-0.180392,-0.023529,33.333333,29.411765,17.647059,2,1,0
0,24,14,1.411765,-2.823529,19.764706,-0.086275,-0.117647,0.14902,33.333333,21.568627,17.647059,2,1,0
0,24,15,2.823529,0,19.764706,-0.070588,-0.101961,0.243137,29.411765,29.411765,9.803922,2,1,0
0,24,16,2.823529,0,19.764706,-0.039216,-0.070588,0.305882,25.490196,21.568627,9.803922,2,1,0
0,24,17,4.235294,1.411765,21.176471,-0.023529,-0.086275,0.290196,13.72549,21.568627,9.803922,2,1,0
0,24,18,-2.823529,0,19.764706,1.984314,0.086275,0.964706,-166.666667,-84.313725,-25.490196,2,1,0
0,24,19,-2.823529,1.411765,19.764706,-0.133333,0.039216,0.180392,1.960784,33.333333,-5.882353,2,1,0
0,24,20,-4.235294,1.411765,19.764706,0.133333,0.007843,0.415686,-45.098039,1.960784,21.568627,2,1,0
0,24,21,-5.647059,0,21.176471,0.14902,0.039216,0.415686,-41.176471,-21.568627,17.647059,2,1,0
0,24,22,-5.647059,-2.823529,22.588235,0.117647,0.054902,0.211765,-29.411765,-37.254902,25.490196,2,1,0
0,24,23,-7.058824,-4.235294,22.588235,0.086275,0.023529,0.054902,-21.568627,-49.019608,29.411765,2,1,0
0,24,24,-7.058824,-5.647059,24,0.039216,0.023529,-0.180392,-17.647059,-49.019608,33.333333,2,1,0
0,24,25,-7.058824,-7.058824,25.411765,-0.023529,-0.007843,-0.352941,1.960784,-41.176471,29.411765,2,1,0
0,24,26,-5.647059,-8.470588,25.411765,-0.039216,0.007843,-0.478431,9.803922,-29.411765,29.411765,2,1,0
0,24,27,-5.647059,-8.470588,26.823529,-0.086275,-0.023529,-0.556863,13.72549,-9.803922,33.333333,2,0,0
0,24,28,-5.647059,-7.058824,28.235294,-0.101961,-0.007843,-0.462745,13.72549,13.72549,29.411765,2,0,0
0,24,29,-5.647059,-5.647059,29.647059,-0.070588,-0.101961,-0.227451,5.882353,17.647059,29.411765,2,0,0
0,25,0,-4.235294,-5.647059,29.647059,-0.101961,-0.039216,-0.14902,17.647059,25.490196,17.647059,2,0,0
0,25,1,-2.823529,-4.235294,29.647059,-0.039216,-0.101961,0.039216,29.411765,37.254902,9.803922,2,0,0
0,25,2,-2.823529,-2.823529,31.058824,-0.023529,-0.086275,0.101961,17.647059,21.568627,9.803922,2,0,0
0,25,3,0,0,31.058824,-0.039216,-0.039216,0.070588,21.568627,25.490196,9.803922,2,0,0
0,25,4,-5.647059,-4.235294,29.647059,1.984314,-0.854902,-1.811765,-5.882353,103.921569,-29.411765,2,0,0
0,25,5,-5.647059,-4.235294,29.647059,0.305882,0.101961,-0.290196,-1.960784,-1.960784,1.960784,2,0,0
0,25,6,-5.647059,-4.235294,29.647059,0.211765,0.007843,-0.086275,-1.960784,1.960784,-1.960784,2,0,0
0,25,7,-5.647059,-4.235294,31.058824,0.117647,0.039216,0.321569,-29.411765,-1.960784,21.568627,2,0,0
0,25,8,-7.058824,-4.235294,32.470588,0.196078,-0.196078,0.698039,-49.019608,21.568627,45.098039,2,0,0
0,25,9,-9.882353,-4.235294,33.882353,0.258824,-0.321569,0.964706,-84.313725,13.72549,37.254902,2,0,0
0,25,10,-12.705882,-5.647059,33.882353,0.211765,-0.180392,0.964706,-72.54902,-37.254902,17.647059,2,0,0
0,25,11,-12.705882,-7.058824,35.294118,0.133333,-0.039216,0.509804,-37.254902,-76.470588,5.882353,2,0,0
0,25,12,-14.117647,-9.882353,35.294118,0.101961,0.023529,0.133333,-25.490196,-72.54902,9.803922,2,0,0
0,25,13,-14.117647,-11.294118,35.294118,0.054902,0.070588,-0.27451,-9.803922,-72.54902,13.72549,2,0,0
0,25,14,-12.705882,-14.117647,36.705882,0.054902,0.133333,-0.603922,-1.960784,-45.098039,21.568627,2,0,0
0,25,15,-12.705882,-14.117647,38.117647,0.039216,0.117647,-0.729412,-1.960784,-29.411765,37.254902,2,0,0
0,25,16,-12.705882,-14.117647,39.529412,0.023529,-0.007843,-0.807843,-17.647059,-17.647059,52.941176,2,0,0
0,25,17,-12.705882,-15.529412,40.941176,0.007843,-0.054902,-0.760784,-17.647059,-13.72549,49.019608,2,0,0
0,25,18,-12.705882,-15.529412,42.352941,0.007843,-0.039216,-0.698039,-13.72549,-17.647059,49.019608,2,0,0
0,25,19,-12.705882,-15.529412,45.176471,-0.023529,-0.133333,-0.65098,21.568627,-25.490196,52.941176,2,0,0
0,25,20,-11.294118,-15.529412,46.588235,-0.086275,-0.180392,-0.65098,52.941176,-13.72549,37.254902,2,0,0
0,25,21,-11.294118,-14.117647,48,-0.039216,-0.243137,-0.447059,17.647059,13.72549,41.176471,2,0,0
0,25,22,-9.882353,-14.117647,48,-0.023529,-0.243137,-0.321569,17.647059,25.490196,29.411765,2,0,0
0,25,23,-9.882353,-12.705882,49.411765,0.007843,-0.258824,-0.14902,29.411765,25.490196,17.647059,2,0,0
0,25,24,-8.470588,-11.294118,49.411765,-0.023529,-0.180392,-0.117647,29.411765,21.568627,9.803922,2,0,0
0,25,25,-7.058824,-9.882353,49.411765,-0.039216,-0.180392,-0.023529,33.333333,29.411765,-1.960784,2,0,0
0,25,26,-7.058824,-8.470588,49.411765,0.007843,-0.070588,0.133333,13.72549,29.411765,1.960784,2,0,0
0,25,27,-5.647059,-8.470588,49.411765,-0.070588,-0.101961,0.164706,33.333333,17.647059,1.960784,2,0,0
0,25,28,-4.235294,-7.058824,49.411765,-0.039216,-0.070588,0.243137,37.254902,17.647059,-5.882353,2,0,0
0,25,29,-2.823529,-7.058824,49.411765,-0.023529,-0.101961,0.290196,33.333333,-1.960784,-5.882353,2,1,0
0,26,0,0,-7.058824,49.411765,-0.023529,-0.007843,0.211765,41.176471,-5.882353,-13.72549,2,1,0
0,26,1,0,-7.058824,49.411765,0.007843,-0.039216,0.180392,29.411765,-9.803922,-9.803922,2,1,0
0,26,2,1.411765,-7.058824,49.411765,-0.023529,0.023529,0.070588,17.647059,-1.960784,-13.72549,2,1,0
0,26,3,1.411765,-7.058824,48,0.023529,0.039216,0.14902,5.882353,5.882353,-5.882353,2,1,0
0,26,4,1.411765,-7.058824,48,0.007843,0.054902,0.070588,9.803922,-1.960784,-5.882353,2,1,0
0,26,5,1.411765,-7.058824,48,0.007843,0.054902,0.054902,9.803922,1.960784,-1.960784,2,1,0
0,26,6,2.823529,-7.058824,48,-0.007843,0.039216,0.039216,9.803922,5.882353,-1.960784,2,1,0
0,26,7,2.823529,-5.647059,49.411765,0.023529,0.023529,0.101961,-1.960784,9.803922,5.882353,2,1,0
0,26,8,2.823529,-5.647059,49.411765,0.007843,0.023529,0.086275,-1.960784,1.960784,1.960784,2,1,0
0,26,9,2.823529,-5.647059,49.411765,-0.007843,0.039216,0.023529,1.960784,-1.960784,1.960784,2,1,0
0,26,10,2.823529,-5.647059,49.411765,0.007843,-0.007843,0.007843,5.882353,-1.960784,-5.882353,2,1,0
0,26,11,1.411765,-4.235294,49.411765,-0.227451,0.101961,0.713725,-52.941176,21.568627,13.72549,2,1,0
0,26,12,0,-4.235294,49.411765,-0.070588,-0.054902,0.039216,-17.647059,-1.960784,-1.960784,2,1,0
0,26,13,0,-4.235294,49.411765,-0.007843,0.007843,-0.007843,-5.882353,-1.960784,-1.960784,2,1,0
0,26,14,0,-4.235294,49.411765,0.007843,-0.007843,-0.007843,-5.882353,-1.960784,-1.960784,2,1,0
0,26,15,0,-4.235294,49.411765,0.007843,0.007843,-0.023529,-1.960784,-1.960784,-1.960784,2,1,1
0,26,16,0,-4.235294,49.411765,0.023529,-0.007843,-0.039216,-1.960784,-1.960784,-1.960784,2,1,1
0,26,17,0,-4.235294,49.411765,0.007843,0.007843,-0.023529,-1.960784,1.960784,-1.960784,2,1,1
0,26,18,0,-4.235294,49.411765,-0.007843,0.007843,0.007843,-5.882353,1.960784,-1.960784,2,1,1
0,26,19,0,-4.235294,49.411765,-0.039216,-0.023529,0.054902,-1.960784,-9.803922,-1.960784,2,1,1
0,26,20,0,0,49.411765,-0.164706,-0.086275,-0.054902,5.882353,68.627451,1.960784,2,1,1
0,26,21,0,1.411765,49.411765,-0.117647,-0.14902,0.964706,-25.490196,29.411765,1.960784,2,1,1
0,26,22,0,0,48,-0.117647,0.039216,0.792157,25.490196,-41.176471,-33.333333,2,1,1
0,26,23,1.411765,-2.823529,48,-0.070588,0.039216,0.603922,41.176471,-45.098039,-33.333333,2,1,1
0,26,24,1.411765,-5.647059,46.588235,0.023529,0.054902,0.52549,-25.490196,-56.862745,-21.568627,2,1,1
0,26,25,-2.823529,-7.058824,46.588235,0.070588,0.070588,0.352941,-60.784314,-45.098039,-13.72549,2,1,1
0,26,26,-4.235294,-7.058824,46.588235,0.211765,0.007843,0.352941,-72.54902,-33.333333,-9.803922,2,1,1
0,26,27,-7.058824,-9.882353,45.176471,0.243137,-0.070588,0.211765,-84.313725,-56.862745,-13.72549,2,1,1
0,26,28,-9.882353,-11.294118,45.176471,0.258824,-0.039216,-0.101961,-84.313725,-37.254902,-13.72549,2,1,1
0,26,29,-11.294118,-11.294118,45.176471,0.27451,-0.039216,-0.258824,-56.862745,1.960784,-17.647059,2,1,1
0,26,30,-14.117647,-11.294118,45.176471,0.368627,-0.054902,-0.258824,-72.54902,1.960784,-5.882353,2,1,1
0,27,0,-16.941176,-11.294118,45.176471,0.352941,-0.133333,-0.352941,-84.313725,-17.647059,-5.882353,2,0,1
0,27,1,-18.352941,-14.117647,43.764706,0.258824,-0.101961,-0.588235,-72.54902,-37.254902,-5.882353,2,0,1
0,27,2,-19.764706,-15.529412,43.764706,0.133333,-0.070588,-0.807843,-49.019608,-45.098039,-13.72549,2,0,1
0,27,3,-21.176471,-16.941176,43.764706,0.086275,-0.023529,-0.996078,-37.254902,-33.333333,-1.960784,2,0,1
0,27,4,-21.176471,-19.764706,45.176471,0.070588,0.023529,-0.996078,-21.568627,-21.568627,13.72549,2,0,1
0,27,5,-21.176471,-19.764706,45.176471,0.054902,-0.070588,-1.011765,9.803922,-17.647059,21.568627,2,0,1
0,27,6,-19.764706,-21.176471,46.588235,0.039216,-0.117647,-0.94902,45.098039,-9.803922,33.333333,2,0,1
0,27,7,-18.352941,-19.764706,48,-0.054902,-0.14902,-0.94902,68.627451,5.882353,41.176471,2,0,1
0,27,8,-16.941176,-18.352941,49.411765,-0.039216,-0.180392,-0.713725,60.784314,37.254902,49.019608,2,0,1
0,27,9,-15.529412,-15.529412,50.823529,-0.133333,-0.227451,-0.52549,64.705882,49.019608,33.333333,2,0,1
0,27,10,-12.705882,-12.705882,52.235294,-0.133333,-0.101961,-0.305882,64.705882,72.54902,29.411765,2,0,1
0,27,11,-11.294118,-9.882353,52.235294,-0.227451,-0.133333,0.023529,45.098039,64.705882,33.333333,2,0,1
0,27,12,-8.470588,-8.470588,53.647059,-0.211765,-0.070588,0.211765,60.784314,64.705882,13.72549,2,0,1
0,27,13,-7.058824,-5.647059,55.058824,-0.164706,-0.070588,0.572549,49.019608,41.176471,29.411765,2,0,1
0,27,14,-4.235294,-5.647059,53.647059,-0.101961,-0.211765,0.682353,80.392157,-9.803922,-9.803922,2,0,1
0,27,15,-2.823529,-7.058824,53.647059,-0.14902,-0.039216,0.415686,68.627451,-21.568627,-17.647059,2,0,1
0,27,16,0,-7.058824,53.647059,-0.054902,-0.054902,0.431373,37.254902,-17.647059,-17.647059,2,0,1
0,27,17,1.411765,-8.470588,52.235294,-0.039216,0.086275,0.27451,25.490196,-29.411765,-21.568627,2,0,1
0,27,18,1.411765,-8.470588,52.235294,-0.007843,0.054902,0.196078,9.803922,-13.72549,-5.882353,2,0,1
0,27,19,1.411765,-8.470588,52.235294,-0.007843,0.070588,0.101961,-13.72549,5.882353,1.960784,2,0,1
0,27,20,0,-7.058824,53.647059,0.023529,0.023529,0.180392,-25.490196,25.490196,13.72549,2,0,1
0,27,21,0,-5.647059,53.647059,-0.007843,-0.007843,0.117647,-5.882353,17.647059,1.960784,2,0,1
0,27,22,0,-5.647059,53.647059,0.039216,-0.023529,0.196078,5.882353,17.647059,5.882353,2,0,1
0,27,23,1.411765,-5.647059,53.647059,0.007843,-0.039216,0.054902,17.647059,-1.960784,-1.960784,2,0,1
0,27,24,1.411765,-4.235294,53.647059,-0.039216,0.007843,0.023529,5.882353,13.72549,1.960784,2,0,1
0,27,25,1.411765,-4.235294,53.647059,-0.007843,-0.039216,0.101961,-21.568627,5.882353,5.882353,2,0,1
0,27,26,0,-5.647059,53.647059,-0.745098,0.054902,0.823529,-49.019608,-49.019608,-17.647059,2,0,1
0,27,27,-2.823529,-5.647059,53.647059,-0.180392,0.086275,-0.023529,-17.647059,-9.803922,-1.960784,2,0,1
0,27,28,-2.823529,-5.647059,53.647059,0.541176,-0.164706,-0.698039,5.882353,37.254902,1.960784,2,0,1
0,27,29,-2.823529,-5.647059,53.647059,0.007843,-0.007843,-0.054902,1.960784,-5.882353,-1.960784,2,0,1
0,28,0,-2.823529,-5.647059,53.647059,-0.023529,-0.023529,0.054902,-1.960784,-5.882353,-1.960784,2,0,1
0,28,1,-2.823529,-5.647059,53.647059,-0.007843,-0.007843,-0.007843,-1.960784,-1.960784,-1.960784,2,0,1
0,28,2,-2.823529,-5.647059,53.647059,-0.007843,-0.007843,0.007843,-1.960784,-1.960784,-1.960784,2,1,1
0,28,3,-2.823529,-5.647059,53.647059,-0.007843,-0.007843,0.007843,-1.960784,-1.960784,-1.960784,2,1,1
0,28,4,-2.823529,-5.647059,53.647059,-0.101961,-0.039216,0.007843,-1.960784,-1.960784,5.882353,2,1,1
0,28,5,-2.823529,-5.647059,53.647059,-0.023529,-0.133333,0.384314,-9.803922,-1.960784,9.803922,2,1,1
0,28,6,-2.823529,-5.647059,53.647059,-0.054902,-0.14902,0.713725,1.960784,-9.803922,-17.647059,2,1,1
0,28,7,-2.823529,-5.647059,53.647059,-0.054902,-0.070588,0.541176,1.960784,-33.333333,-9.803922,2,1,1
0,28,8,-2.823529,-7.058824,53.647059,-0.007843,-0.086275,0.431373,-9.803922,-21.568627,-13.72549,2,1,1
0,28,9,-4.235294,-7.058824,52.235294,0.023529,-0.101961,0.290196,-41.176471,-17.647059,-5.882353,2,1,1
0,28,10,-5.647059,-7.058824,52.235294,0.054902,-0.086275,0.070588,-56.862745,-1.960784,-9.803922,2,1,1
0,28,11,-8.470588,-7.058824,52.235294,0.117647,-0.070588,-0.039216,-72.54902,13.72549,-5.882353,2,1,1
0,28,12,-9.882353,-7.058824,52.235294,0.14902,-0.070588,-0.180392,-68.627451,9.803922,-5.882353,2,1,1
0,28,13,-12.705882,-7.058824,52.235294,0.180392,-0.054902,-0.368627,-60.784314,-1.960784,-9.803922,2,1,1
0,28,14,-14.117647,-7.058824,50.823529,0.14902,-0.054902,-0.572549,-41.176471,-5.882353,-21.568627,2,1,1
0,28,15,-14.117647,-7.058824,50.823529,0.164706,-0.039216,-0.666667,-21.568627,1.960784,-17.647059,2,1,1
0,28,16,-14.117647,-8.470588,50.823529,0.14902,-0.039216,-0.666667,-17.647059,-5.882353,-5.882353,2,1,1
0,28,17,-15.529412,-8.470588,50.823529,0.039216,-0.101961,-0.698039,-13.72549,-1.960784,1.960784,2,1,1
0,28,18,-15.529412,-7.058824,50.823529,-0.007843,-0.101961,-0.588235,-9.803922,13.72549,9.803922,2,0,1
0,28,19,-15.529412,-7.058824,52.235294,-0.007843,-0.133333,-0.431373,-9.803922,9.803922,17.647059,2,0,1
0,28,20,-15.529412,-7.058824,52.235294,-0.086275,-0.164706,-0.352941,21.568627,-1.960784,5.882353,2,0,1
0,28,21,-12.705882,-5.647059,52.235294,-0.054902,-0.14902,-0.27451,49.019608,5.882353,-1.960784,2,0,1
0,28,22,-11.294118,-5.647059,52.235294,-0.086275,-0.196078,-0.180392,56.862745,17.647059,-9.803922,2,0,1
0,28,23,-9.882353,-4.235294,52.235294,-0.117647,-0.133333,-0.086275,41.176471,37.254902,-5.882353,2,0,1
0,28,24,-8.470588,-2.823529,52.235294,-0.086275,-0.086275,0.196078,25.490196,45.098039,-1.960784,2,0,1
0,28,25,-7.058824,0,52.235294,-0.086275,-0.070588,0.321569,37.254902,21.568627,-5.882353,2,0,1
0,28,26,-5.647059,0,52.235294,-0.086275,-0.023529,0.368627,37.254902,9.803922,-5.882353,2,0,1
0,28,27,-5.647059,0,50.823529,-0.101961,0.007843,0.321569,29.411765,-1.960784,-5.882353,2,0,1
0,28,28,-4.235294,0,52.235294,-0.086275,-0.023529,0.243137,21.568627,-1.960784,1.960784,2,0,1
0,28,29,-2.823529,0,52.235294,-0.070588,-0.023529,0.164706,29.411765,-9.803922,-1.960784,2,0,1
0,29,0,-2.823529,0,52.235294,-0.070588,-0.023529,0.054902,17.647059,-5.882353,-1.960784,2,0,1
0,29,1,-2.823529,0,52.235294,-0.070588,-0.023529,-0.039216,9.803922,1.960784,1.960784,2,0,1
0,29,2,-2.823529,1.411765,52.235294,-0.070588,-0.007843,-0.039216,1.960784,13.72549,5.882353,2,0,1
0,29,3,-2.823529,1.411765,52.235294,-0.086275,-0.007843,-0.039216,-1.960784,17.647059,9.803922,2,0,1
0,29,4,0,-4.235294,52.235294,-0.117647,-0.117647,0.431373,21.568627,-131.372549,-17.647059,2,0,0
0,29,5,0,-4.235294,52.235294,0.305882,0.023529,-0.368627,-1.960784,13.72549,-1.960784,2,0,0
0,29,6,0,-4.235294,52.235294,0.039216,-0.023529,-0.086275,-1.960784,-1.960784,-1.960784,2,0,0
0,29,7,0,-4.235294,52.235294,-0.054902,0.007843,0.070588,-1.960784,-1.960784,-1.960784,2,0,0
0,29,8,0,-4.235294,52.235294,-0.023529,-0.007843,0.023529,-1.960784,-1.960784,-1.960784,2,0,0
0,29,9,0,-4.235294,52.235294,0.007843,-0.007843,-0.007843,-1.960784,-1.960784,-1.960784,2,0,0
0,29,10,0,-4.235294,52.235294,-0.007843,-0.007843,-0.007843,-1.960784,-1.960784,-1.960784,2,0,0
0,29,11,0,-4.235294,52.235294,-0.007843,-0.007843,0.007843,-1.960784,-1.960784,-1.960784,2,0,0
0,29,12,0,-4.235294,52.235294,-0.007843,-0.007843,-0.007843,-1.960784,-1.960784,-1.960784,2,0,0
0,29,13,0,-4.235294,52.235294,-0.023529,-0.023529,0.023529,-1.960784,-5.882353,-1.960784,2,0,0
0,29,14,-2.823529,-2.823529,52.235294,-0.023529,-0.133333,0.039216,-41.176471,17.647059,-5.882353,2,0,0
0,29,15,-5.647059,0,52.235294,-0.101961,-0.196078,0.509804,-72.54902,25.490196,-5.882353,2,0,0
0,29,16,-5.647059,-2.823529,50.823529,-0.133333,-0.258824,0.541176,-17.647059,-25.490196,-37.254902,2,0,0
0,29,17,-5.647059,-4.235294,48,-0.133333,-0.211765,0.337255,9.803922,-45.098039,-56.862745,2,0,0
0,29,18,-5.647059,-5.647059,46.588235,-0.133333,-0.243137,0.196078,-1.960784,-49.019608,-64.705882,2,0,0
0,29,19,-7.058824,-7.058824,43.764706,-0.133333,-0.164706,0.023529,-21.568627,-45.098039,-68.627451,2,0,0
0,29,20,-7.058824,-7.058824,42.352941,-0.070588,-0.101961,-0.101961,-25.490196,-33.333333,-72.54902,2,1,0
0,29,21,-8.470588,-8.470588,39.529412,-0.086275,-0.086275,-0.27451,-13.72549,-25.490196,-80.392157,2,1,0
0,29,22,-8.470588,-8.470588,36.705882,0.007843,0.070588,-0.321569,-9.803922,-5.882353,-84.313725,2,1,0
0,29,23,-8.470588,-8.470588,35.294118,0.054902,0.070588,-0.368627,-21.568627,-5.882353,-60.784314,2,1,0
0,29,24,-8.470588,-8.470588,32.470588,0.070588,0.054902,-0.447059,-13.72549,5.882353,-64.705882,2,1,0
0,29,25,-8.470588,-7.058824,31.058824,0.054902,0.101961,-0.52549,-1.960784,25.490196,-64.705882,2,1,0
0,29,26,-8.470588,-5.647059,29.647059,0.133333,0.133333,-0.352941,-13.72549,41.176471,-37.254902,2,1,0
0,29,27,-8.470588,-4.235294,28.235294,0.133333,0.070588,-0.211765,-9.803922,33.333333,-25.490196,2,1,0
0,29,28,-7.058824,-4.235294,28.235294,0.14902,0.070588,-0.164706,1.960784,17.647059,-13.72549,2,1,0
0,29,29,-7.058824,-4.235294,28.235294,0.101961,-0.039216,-0.133333,17.647059,13.72549,-17.647059,2,1,0
0,29,30,-7.058824,-2.823529,26.823529,0.117647,-0.007843,-0.039216,1.960784,13.72549,-13.72549,2,1,0
0,30,0,-7.058824,-2.823529,26.823529,0.101961,-0.054902,-0.039216,1.960784,9.803922,-9.803922,2,1,0
0,30,1,-7.058824,-2.823529,26.823529,0.101961,-0.023529,-0.007843,1.960784,13.72549,-13.72549,2,1,0
0,30,2,-5.647059,-2.823529,26.823529,0.101961,-0.023529,0.054902,9.803922,9.803922,-9.803922,2,1,0
0,30,3,-5.647059,-2.823529,26.823529,0.086275,-0.039216,0.039216,25.490196,5.882353,-13.72549,2,1,0
0,30,4,-4.235294,-2.823529,25.411765,0.101961,-0.039216,0.070588,17.647059,1.960784,-13.72549,2,1,0
0,30,5,-4.235294,-2.823529,25.411765,0.054902,-0.007843,0.023529,9.803922,5.882353,-13.72549,2,1,0
0,30,6,-4.235294,0,25.411765,0.054902,0.007843,0.054902,1.960784,17.647059,-5.882353,2,1,0
0,30,7,-2.823529,0,25.411765,0.070588,-0.023529,0.117647,9.803922,5.882353,-9.803922,2,1,0
0,30,8,-2.823529,0,24,0.023529,0.023529,0.023529,5.882353,5.882353,-5.882353,2,1,0
0,30,9,-2.823529,0,24,0.039216,-0.007843,0.070588,5.882353,9.803922,-1.960784,2,1,0
0,30,10,-2.823529,0,24,0.039216,0.023529,0.023529,5.882353,1.960784,-5.882353,2,1,0
0,30,11,0,1.411765,24,0.007843,0.039216,0.007843,5.882353,5.882353,1.960784,2,1,0
0,30,12,0,1.411765,24,0.007843,0.023529,-0.007843,1.960784,1.960784,1.960784,2,1,0
0,30,13,0,0,24,0.007843,-0.023529,-0.133333,1.960784,-9.803922,-13.72549,2,1,0
0,30,14,0,0,24,0.039216,-0.023529,-0.211765,-1.960784,1.960784,-1.960784,2,1,0
0,30,15,0,0,24,-0.023529,0.007843,-0.007843,-1.960784,-1.960784,-1.960784,2,1,0
0,30,16,0,0,24,0.007843,-0.007843,-0.007843,-1.960784,-1.960784,-1.960784,2,1,0
0,30,17,0,0,24,0.007843,-0.007843,-0.007843,-1.960784,-1.960784,-1.960784,2,1,0
0,30,18,0,0,24,-0.007843,-0.007843,-0.007843,-1.960784,-1.960784,-1.960784,2,1,0
0,30,19,0,0,24,0.007843,-0.007843,-0.023529,-1.960784,-1.960784,-1.960784,2,1,0
0,30,20,0,1.411765,24,0.023529,0.054902,0.007843,-9.803922,13.72549,-1.960784,2,1,0
0,30,21,0,1.411765,24,0.007843,0.023529,-0.023529,-1.960784,1.960784,-1.960784,2,2,0
0,30,22,0,1.411765,24,0.007843,-0.007843,-0.023529,-1.960784,-1.960784,-1.960784,2,2,0
0,30,23,0,0,24,-0.023529,-0.023529,0.054902,1.960784,-17.647059,-1.960784,2,2,0
0,30,24,0,0,24,0.007843,-0.007843,-0.086275,-1.960784,-1.960784,-1.960784,2,2,0
0,30,25,0,0,24,0.007843,-0.007843,-0.007843,-1.960784,-1.960784,-1.960784,2,2,0
0,30,26,0,1.411765,24,-0.101961,-0.070588,0.133333,-5.882353,9.803922,-17.647059,2,2,0
0,30,27,0,1.411765,24,-0.054902,0.007843,0.117647,-5.882353,-1.960784,-5.882353,2,2,0
0,30,28,0,0,24,0.023529,0.007843,0.870588,5.882353,-25.490196,-5.882353,2,2,0
0,30,29,0,-2.823529,24,0.054902,0.290196,0.760784,13.72549,-52.941176,-1.960784,2,2,0
0,31,0,1.411765,-5.647059,24,0.133333,0.384314,0.666667,9.803922,-60.784314,21.568627,2,2,0
0,31,1,1.411765,-7.058824,25.411765,0.14902,0.337255,0.352941,5.882353,-64.705882,41.176471,2,2,0
0,31,2,1.411765,-8.470588,28.235294,0.180392,0.368627,0.180392,-21.568627,-52.941176,60.784314,2,2,0
0,31,3,0,-11.294118,29.647059,0.133333,0.258824,-0.039216,-37.254902,-52.941176,72.54902,2,2,0
0,31,4,-2.823529,-11.294118,32.470588,0.101961,0.211765,-0.196078,-49.019608,-41.176471,76.470588,2,2,0
0,31,5,-2.823529,-12.705882,35.294118,0.054902,0.054902,-0.290196,-33.333333,-33.333333,76.470588,2,2,0
0,31,6,-4.235294,-14.117647,38.117647,-0.007843,-0.007843,-0.431373,-29.411765,-33.333333,72.54902,2,2,0
0,31,7,-4.235294,-14.117647,39.529412,-0.054902,-0.133333,-0.509804,-17.647059,-29.411765,64.705882,2,1,0
0,31,8,-5.647059,-14.117647,42.352941,-0.086275,-0.196078,-0.65098,-5.882353,-29.411765,56.862745,2,1,0
0,31,9,-5.647059,-14.117647,43.764706,-0.117647,-0.27451,-0.729412,-5.882353,-13.72549,49.019608,2,1,0
0,31,10,-7.058824,-14.117647,45.176471,-0.101961,-0.305882,-0.745098,-5.882353,-1.960784,41.176471,2,1,0
0,31,11,-8.470588,-12.705882,46.588235,-0.070588,-0.337255,-0.713725,9.803922,5.882353,25.490196,2,1,0
0,31,12,-7.058824,-12.705882,46.588235,-0.054902,-0.337255,-0.729412,33.333333,17.647059,17.647059,2,1,0
0,31,13,-7.058824,-11.294118,46.588235,-0.023529,-0.352941,-0.556863,45.098039,33.333333,-1.960784,2,1,0
0,31,14,-5.647059,-9.882353,46.588235,0.023529,-0.321569,-0.4,37.254902,29.411765,-13.72549,2,1,0
0,31,15,-5.647059,-8.470588,45.176471,-0.039216,-0.227451,-0.4,17.647059,41.176471,-25.490196,2,1,0
0,31,16,-4.235294,-5.647059,43.764706,0.023529,-0.164706,-0.133333,45.098039,56.862745,-41.176471,2,1,0
0,31,17,-4.235294,-4.235294,43.764706,0.086275,0.023529,0.227451,9.803922,56.862745,-33.333333,2,1,0
0,31,18,-4.235294,-2.823529,42.352941,0.133333,-0.086275,0.447059,-5.882353,41.176471,-25.490196,2,1,0
0,31,19,-2.823529,0,40.941176,0.180392,0.039216,0.478431,13.72549,33.333333,-29.411765,2,1,0
0,31,20,0,0,40.941176,0.211765,0.039216,0.541176,49.019608,5.882353,-37.254902,2,1,0
0,31,21,1.411765,-2.823529,39.529412,0.164706,0.14902,0.211765,52.941176,-9.803922,-25.490196,2,1,0
0,31,22,2.823529,0,39.529412,0.101961,0.133333,0.023529,25.490196,17.647059,-9.803922,2,1,0
0,31,23,-9.882353,5.647059,39.529412,1.184314,0.101961,-0.792157,-343.137255,245.098039,9.803922,2,1,1
0,31,24,-9.882353,7.058824,39.529412,-0.27451,-0.94902,0.964706,13.72549,29.411765,-21.568627,2,1,1
0,31,25,-8.470588,7.058824,39.529412,-0.070588,-0.023529,-0.007843,-1.960784,5.882353,-1.960784,2,1,1
0,31,26,-8.470588,7.058824,39.529412,-0.023529,-0.023529,0.007843,-1.960784,-1.960784,-1.960784,2,1,1
0,31,27,-8.470588,7.058824,39.529412,-0.023529,-0.007843,0.007843,-1.960784,-1.960784,-1.960784,2,1,1
0,31,28,-8.470588,7.058824,39.529412,-0.007843,-0.007843,-0.007843,-1.960784,-1.960784,-1.960784,2,1,1
0,31,29,-8.470588,7.058824,39.529412,-0.007843,-0.007843,-0.007843,-1.960784,-1.960784,-1.960784,2,1,1
0,32,0,-8.470588,7.058824,39.529412,-0.007843,-0.007843,-0.007843,-1.960784,-1.960784,-1.960784,2,1,1
0,32,1,-8.470588,7.058824,39.529412,-0.007843,-0.007843,-0.007843,-1.960784,-1.960784,-1.960784,2,1,1
0,32,2,-8.470588,7.058824,39.529412,-0.007843,-0.007843,-0.007843,-1.960784,-1.960784,-1.960784,2,1,1
0,32,3,-8.470588,5.647059,39.529412,-0.007843,-0.007843,-0.007843,-1.960784,-1.960784,-1.960784,2,1,1
0,32,4,-8.470588,5.647059,39.529412,-0.007843,-0.007843,-0.007843,-1.960784,-1.960784,-1.960784,2,1,1
0,32,5,-8.470588,5.647059,39.529412,0.007843,-0.007843,0.007843,-1.960784,-1.960784,-1.960784,2,1,1
0,32,6,-8.470588,5.647059,39.529412,-0.070588,-0.14902,0.070588,-5.882353,-5.882353,25.490196,2,1,1
0,32,7,-8.470588,5.647059,39.529412,-0.117647,-0.258824,0.352941,-29.411765,5.882353,-5.882353,2,1,1
0,32,8,-8.470588,5.647059,39.529412,-0.054902,-0.054902,0.776471,-5.882353,-1.960784,-13.72549,2,1,1
0,32,9,-8.470588,5.647059,38.117647,-0.101961,-0.070588,0.556863,21.568627,-25.490196,-25.490196,2,1,1
0,32,10,-8.470588,4.235294,38.117647,-0.039216,-0.039216,0.556863,-17.647059,-13.72549,-21.568627,2,1,1
0,32,11,-9.882353,4.235294,38.117647,-0.054902,0.007843,0.384314,-41.176471,-25.490196,-17.647059,2,1,1
0,32,12,-9.882353,2.823529,36.705882,-0.054902,-0.007843,0.243137,-37.254902,-13.72549,-21.568627,2,1,1
0,32,13,-11.294118,2.823529,36.705882,0.007843,0.007843,0.14902,-52.941176,-25.490196,-25.490196,2,1,1
0,32,14,-12.705882,1.411765,35.294118,0.023529,0.023529,-0.054902,-52.941176,-21.568627,-29.411765,2,1,1
0,32,15,-14.117647,1.411765,33.882353,0.070588,0.023529,-0.101961,-49.019608,-17.647059,-29.411765,2,1,1
0,32,16,-15.529412,0,33.882353,0.086275,-0.070588,-0.180392,-56.862745,-25.490196,-33.333333,2,1,1
0,32,17,-18.352941,-2.823529,32.470588,0.086275,-0.101961,-0.368627,-56.862745,-29.411765,-33.333333,2,1,1
0,32,18,-19.764706,-2.823529,31.058824,0.039216,-0.164706,-0.572549,-45.098039,-25.490196,-41.176471,2,1,1
0,32,19,-21.176471,-2.823529,29.647059,0.023529,-0.196078,-0.792157,-49.019608,-5.882353,-41.176471,2,1,1
0,32,20,-22.588235,-2.823529,28.235294,-0.086275,-0.164706,-0.572549,-56.862745,21.568627,-33.333333,2,1,1
0,32,21,-24,-2.823529,28.235294,0.101961,-0.211765,-0.682353,-25.490196,1.960784,-37.254902,2,1,1
0,32,22,-24,-2.823529,26.823529,0.054902,-0.196078,-0.854902,9.803922,-9.803922,-37.254902,2,1,1
0,32,23,-24,-2.823529,25.411765,0.086275,-0.196078,-0.839216,25.490196,21.568627,-37.254902,2,1,1
0,32,24,-22.588235,-2.823529,24,0.164706,-0.180392,-0.556863,13.72549,21.568627,-29.411765,2,1,1
0,32,25,-21.176471,-2.823529,22.588235,0.086275,-0.101961,-0.572549,29.411765,13.72549,-37.254902,2,0,1
0,32,26,-19.764706,0,22.588235,0.101961,-0.023529,-0.415686,56.862745,37.254902,-29.411765,2,0,1
0,32,27,-16.941176,1.411765,21.176471,0.133333,-0.070588,-0.101961,52.941176,33.333333,-25.490196,2,0,1
0,32,28,-15.529412,2.823529,19.764706,0.070588,0.023529,-0.117647,52.941176,33.333333,-37.254902,2,0,1
0,32,29,-14.117647,4.235294,19.764706,0.117647,0.070588,0.243137,37.254902,45.098039,-13.72549,2,0,1
0,33,0,-12.705882,4.235294,18.352941,0.070588,-0.023529,0.368627,33.333333,37.254902,-25.490196,2,0,1
0,33,1,-11.294118,5.647059,18.352941,0.117647,0.070588,0.541176,33.333333,21.568627,-17.647059,2,0,1
0,33,2,-8.470588,5.647059,16.941176,0.086275,0.054902,0.431373,56.862745,-1.960784,-25.490196,2,0,1
0,33,3,-8.470588,5.647059,16.941176,0.086275,0.070588,0.27451,25.490196,1.960784,-17.647059,2,0,1
0,33,4,-8.470588,5.647059,16.941176,0.039216,0.054902,0.180392,-13.72549,13.72549,-5.882353,2,0,1
0,33,5,-7.058824,5.647059,16.941176,0.039216,0.054902,0.133333,5.882353,17.647059,1.960784,2,0,1
0,33,6,-7.058824,5.647059,16.941176,0.023529,0.023529,0.133333,29.411765,17.647059,-1.960784,2,0,1
0,33,7,-18.352941,2.823529,18.352941,-1.466667,0.760784,0.964706,-401.960784,-135.294118,45.098039,2,0,1
0,33,8,-19.764706,2.823529,18.352941,-0.070588,-0.023529,0.164706,-17.647059,17.647059,-13.72549,2,0,1
0,33,9,-18.352941,2.823529,18.352941,-0.039216,0.007843,0.117647,-1.960784,1.960784,-1.960784,2,0,1
0,33,10,-18.352941,2.823529,18.352941,-0.039216,0.007843,0.023529,-1.960784,-1.960784,-1.960784,2,0,1
0,33,11,-18.352941,2.823529,18.352941,-0.023529,-0.007843,0.007843,-1.960784,-1.960784,-1.960784,2,0,1
0,33,12,-18.352941,2.823529,18.352941,-0.007843,-0.007843,-0.007843,-1.960784,-1.960784,-1.960784,2,0,1
0,33,13,-16.941176,2.823529,18.352941,-0.007843,-0.007843,-0.007843,-1.960784,-1.960784,-1.960784,2,0,1
0,33,14,-16.941176,2.823529,18.352941,-0.007843,-0.007843,-0.007843,-1.960784,-1.960784,-1.960784,2,0,1
0,33,15,-16.941176,2.823529,18.352941,-0.007843,-0.007843,-0.007843,-1.960784,-1.960784,-1.960784,2,0,1
0,33,16,-16.941176,2.823529,18.352941,-0.007843,-0.007843,-0.007843,-1.960784,-1.960784,-1.960784,2,0,1
0,33,17,-16.941176,2.823529,18.352941,-0.007843,-0.007843,-0.007843,-1.960784,-1.960784,-1.960784,2,0,1
0,33,18,-15.529412,2.823529,18.352941,-0.007843,-0.007843,-0.007843,-1.960784,-1.960784,-1.960784,2,0,1
0,33,19,-15.529412,1.411765,18.352941,0.007843,-0.133333,0.070588,1.960784,-13.72549,5.882353,2,0,1
0,33,20,-15.529412,1.411765,18.352941,-0.070588,-0.133333,0.070588,-5.882353,-17.647059,-5.882353,2,0,1
0,33,21,-15.529412,1.411765,18.352941,-0.023529,-0.133333,0.462745,5.882353,9.803922,-5.882353,2,0,1
0,33,22,-14.117647,1.411765,18.352941,-0.023529,-0.117647,0.4,13.72549,-21.568627,-9.803922,2,0,1
0,33,23,-14.117647,1.411765,18.352941,-0.023529,-0.14902,0.368627,-9.803922,-13.72549,-5.882353,2,0,1
0,33,24,-15.529412,0,18.352941,0.007843,-0.117647,0.290196,-29.411765,-9.803922,-9.803922,2,0,1
0,33,25,-15.529412,0,16.941176,0.054902,-0.117647,0.27451,-29.411765,-1.960784,-9.803922,2,0,1
0,33,26,-16.941176,0,16.941176,0.086275,-0.133333,0.243137,-41.176471,-21.568627,-13.72549,2,0,1
0,33,27,-18.352941,-2.823529,16.941176,0.086275,-0.117647,0.054902,-52.941176,-25.490196,-17.647059,2,1,1
0,33,28,-19.764706,-2.823529,15.529412,0.101961,-0.117647,-0.023529,-64.705882,-13.72549,-21.568627,2,1,1
0,33,29,-22.588235,-4.235294,15.529412,0.086275,-0.14902,-0.086275,-80.392157,-17.647059,-25.490196,2,1,1
0,33,30,-25.411765,-4.235294,14.117647,0.070588,-0.14902,-0.14902,-88.235294,-9.803922,-25.490196,2,1,1
0,34,0,-28.235294,-4.235294,12.705882,0.086275,-0.14902,-0.086275,-88.235294,-17.647059,-33.333333,2,1,1
0,34,1,-29.647059,-5.647059,12.705882,0.070588,-0.101961,-0.196078,-68.627451,-29.411765,-33.333333,2,1,1
0,34,2,-29.647059,-7.058824,11.294118,0.054902,-0.086275,-0.305882,-33.333333,-37.254902,-29.411765,2,1,1
0,34,3,-29.647059,-7.058824,9.882353,0.039216,-0.086275,-0.509804,-5.882353,-33.333333,-25.490196,2,1,1
0,34,4,-28.235294,-8.470588,9.882353,0.023529,-0.117647,-0.666667,21.568627,-17.647059,-25.490196,2,1,1
0,34,5,-28.235294,-8.470588,9.882353,0.070588,-0.086275,-0.635294,17.647059,-5.882353,-17.647059,2,1,1
0,34,6,-26.823529,-8.470588,8.470588,0.070588,-0.133333,-0.65098,13.72549,-21.568627,-13.72549,2,1,1
0,34,7,-25.411765,-9.882353,8.470588,0.039216,-0.086275,-0.792157,41.176471,-9.803922,-13.72549,2,1,1
0,34,8,-24,-8.470588,8.470588,0.070588,-0.054902,-0.65098,37.254902,21.568627,-5.882353,2,1,1
0,34,9,-24,-8.470588,8.470588,0.117647,-0.117647,-0.4,17.647059,21.568627,1.960784,2,1,1
0,34,10,-22.588235,-7.058824,8.470588,0.039216,-0.054902,-0.431373,37.254902,25.490196,-9.803922,2,1,1
0,34,11,-19.764706,-5.647059,8.470588,0.101961,0.007843,-0.133333,52.941176,37.254902,-5.882353,2,1,1
0,34,12,-16.941176,-5.647059,8.470588,0.039216,-0.039216,-0.133333,60.784314,17.647059,-13.72549,2,0,0
0,34,13,-14.117647,-2.823529,7.058824,0.086275,0.133333,0.086275,60.784314,60.784314,-5.882353,2,0,0
0,34,14,-12.705882,0,7.058824,0.117647,0.101961,0.243137,64.705882,41.176471,-1.960784,2,0,0
0,34,15,-9.882353,1.411765,8.470588,0.086275,0.086275,0.337255,45.098039,49.019608,5.882353,2,0,0
0,34,16,-9.882353,2.823529,8.470588,0.086275,0.054902,0.431373,25.490196,37.254902,9.803922,2,0,0
0,34,17,-8.470588,2.823529,8.470588,0.054902,0.039216,0.462745,1.960784,29.411765,17.647059,2,0,0
0,34,18,-8.470588,2.823529,9.882353,0.007843,0.007843,0.431373,17.647059,13.72549,17.647059,2,0,0
0,34,19,-7.058824,2.823529,9.882353,0.007843,-0.023529,0.305882,21.568627,-1.960784,9.803922,2,0,0
0,34,20,-7.058824,2.823529,9.882353,-0.007843,-0.007843,0.054902,17.647059,-13.72549,5.882353,2,0,0
0,34,21,-7.058824,2.823529,11.294118,-0.054902,0.086275,-0.27451,5.882353,1.960784,5.882353,2,0,0
0,34,22,-9.882353,-5.647059,9.882353,1.952941,-0.980392,0.996078,-5.882353,209.803922,-33.333333,2,0,0
0,34,23,-8.470588,-7.058824,9.882353,-0.164706,0.180392,0.007843,5.882353,-37.254902,-5.882353,2,0,0
0,34,24,-8.470588,-7.058824,9.882353,-0.023529,-0.054902,-0.14902,-1.960784,1.960784,1.960784,2,0,0
0,34,25,-8.470588,-7.058824,9.882353,-0.023529,0.007843,0.007843,-1.960784,-1.960784,-1.960784,2,0,0
0,34,26,-8.470588,-7.058824,9.882353,0.023529,-0.007843,-0.054902,-1.960784,-5.882353,-1.960784,2,0,0
0,34,27,-8.470588,-7.058824,9.882353,-0.007843,-0.039216,0.039216,-1.960784,-5.882353,-1.960784,2,0,0
0,34,28,-8.470588,-7.058824,9.882353,0.007843,-0.007843,-0.007843,-1.960784,-1.960784,-1.960784,2,1,0
0,34,29,-8.470588,-7.058824,9.882353,0.007843,-0.007843,-0.007843,-1.960784,-1.960784,-1.960784,2,1,0
0,35,0,-8.470588,-7.058824,9.882353,-0.007843,-0.007843,-0.007843,-1.960784,-1.960784,-1.960784,2,1,0
0,35,1,-8.470588,-7.058824,9.882353,-0.007843,-0.007843,-0.007843,-1.960784,-1.960784,-1.960784,2,1,0
0,35,2,-8.470588,-7.058824,9.882353,-0.007843,-0.007843,-0.007843,-1.960784,-1.960784,-1.960784,2,1,0
0,35,3,-7.058824,-5.647059,9.882353,-0.007843,-0.007843,-0.007843,-1.960784,-1.960784,-1.960784,2,1,0
0,35,4,-7.058824,-5.647059,9.882353,-0.007843,-0.007843,-0.007843,-1.960784,-1.960784,-1.960784,2,1,0
0,35,5,-7.058824,-5.647059,9.882353,-0.007843,-0.007843,-0.007843,-1.960784,-1.960784,-1.960784,2,1,0
0,35,6,-7.058824,-5.647059,9.882353,0.007843,-0.007843,-0.023529,-1.960784,1.960784,-1.960784,2,1,0
0,35,7,-7.058824,-5.647059,9.882353,0.023529,-0.070588,0.039216,-1.960784,-5.882353,-1.960784,2,1,0
0,35,8,-7.058824,-5.647059,9.882353,-0.007843,-0.039216,0.007843,-1.960784,-1.960784,9.803922,2,1,0
0,35,9,-7.058824,-5.647059,9.882353,-0.070588,-0.133333,0.258824,5.882353,13.72549,-1.960784,2,1,0
0,35,10,-7.058824,-5.647059,9.882353,0.039216,-0.070588,0.619608,9.803922,9.803922,-1.960784,2,1,0
0,35,11,-7.058824,-5.647059,9.882353,0.039216,-0.117647,0.698039,-9.803922,-17.647059,-1.960784,2,1,0
0,35,12,-7.058824,-7.058824,9.882353,0.039216,-0.039216,0.65098,-25.490196,-33.333333,-1.960784,2,1,0
0,35,13,-8.470588,-8.470588,9.882353,0.070588,-0.023529,0.541176,-41.176471,-56.862745,-1.960784,2,1,0
0,35,14,-9.882353,-9.882353,11.294118,0.086275,0.023529,0.321569,-49.019608,-60.784314,5.882353,2,2,0
0,35,15,-11.294118,-11.294118,11.294118,0.133333,0.054902,0.117647,-52.941176,-56.862745,5.882353,2,2,0
0,35,16,-12.705882,-12.705882,11.294118,0.164706,0.101961,-0.023529,-56.862745,-45.098039,21.568627,2,2,0
0,35,17,-14.117647,-14.117647,12.705882,0.196078,0.039216,-0.164706,-52.941176,-49.019608,21.568627,2,2,0
0,35,18,-15.529412,-16.941176,14.117647,0.180392,0.101961,-0.352941,-49.019608,-45.098039,33.333333,2,2,0
0,35,19,-15.529412,-16.941176,15.529412,0.164706,0.086275,-0.541176,-37.254902,-37.254902,45.098039,2,2,0
0,35,20,-16.941176,-18.352941,16.941176,0.086275,-0.007843,-0.698039,-17.647059,-13.72549,41.176471,2,2,0
0,35,21,-16.941176,-18.352941,18.352941,0.14902,-0.023529,-0.635294,-17.647059,1.960784,37.254902,2,2,0
0,35,22,-16.941176,-18.352941,19.764706,0.133333,-0.007843,-0.603922,-29.411765,-9.803922,49.019608,2,2,0
0,35,23,-16.941176,-18.352941,21.176471,0.070588,-0.054902,-0.635294,9.803922,-21.568627,45.098039,2,2,0
0,35,24,-15.529412,-18.352941,22.588235,0.007843,-0.101961,-0.666667,41.176471,-21.568627,41.176471,2,2,0
0,35,25,-14.117647,-18.352941,24,-0.023529,-0.133333,-0.65098,37.254902,-9.803922,45.098039,2,2,0
0,35,26,-12.705882,-18.352941,25.411765,-0.023529,-0.211765,-0.588235,41.176471,5.882353,45.098039,2,2,0
0,35,27,-11.294118,-16.941176,26.823529,-0.039216,-0.211765,-0.431373,45.098039,17.647059,33.333333,2,2,0
0,35,28,-9.882353,-16.941176,28.235294,-0.023529,-0.211765,-0.290196,45.098039,13.72549,25.490196,2,2,0
0,35,29,-8.470588,-15.529412,28.235294,-0.101961,-0.180392,-0.211765,60.784314,1.960784,5.882353,2,2,0
0,36,0,-5.647059,-14.117647,28.235294,-0.054902,-0.039216,-0.14902,72.54902,29.411765,-1.960784,2,1,0
0,36,1,-4.235294,-12.705882,28.235294,-0.054902,-0.086275,0.086275,64.705882,37.254902,1.960784,2,1,0
0,36,2,0,-11.294118,28.235294,0.007843,-0.039216,0.258824,72.54902,33.333333,-13.72549,2,1,0
0,36,3,1.411765,-9.882353,28.235294,0.007843,0.054902,0.321569,52.941176,37.254902,-5.882353,2,1,0
0,36,4,2.823529,-8.470588,28.235294,0.054902,-0.039216,0.478431,45.098039,41.176471,-5.882353,2,1,0
0,36,5,4.235294,-8.470588,26.823529,0.054902,0.007843,0.478431,9.803922,17.647059,-9.803922,2,1,0
0,36,6,4.235294,-7.058824,26.823529,0.039216,0.070588,0.4,25.490196,5.882353,-5.882353,2,1,0
0,36,7,5.647059,-8.470588,26.823529,0.039216,0.054902,0.258824,49.019608,-13.72549,-13.72549,2,1,0
0,36,8,1.411765,-8.470588,28.235294,-0.211765,-0.196078,0.478431,-123.529412,-17.647059,52.941176,2,1,0
0,36,9,1.411765,-7.058824,26.823529,1.32549,0.007843,-0.964706,1.960784,60.784314,-37.254902,2,1,0
0,36,10,1.411765,-7.058824,26.823529,-0.023529,-0.007843,0.007843,-1.960784,-1.960784,-1.960784,2,1,0
0,36,11,1.411765,-7.058824,26.823529,0.039216,-0.054902,-0.007843,-1.960784,-1.960784,-5.882353,2,1,0
0,36,12,1.411765,-7.058824,26.823529,-0.007843,-0.007843,0.007843,-1.960784,-1.960784,-1.960784,2,1,0
0,36,13,1.411765,-7.058824,26.823529,-0.007843,0.007843,-0.007843,-1.960784,-1.960784,-1.960784,2,1,0
0,36,14,1.411765,-7.058824,26.823529,-0.007843,-0.007843,-0.007843,-1.960784,-1.960784,-1.960784,2,1,0
0,36,15,1.411765,-7.058824,26.823529,-0.007843,-0.007843,-0.007843,-1.960784,-1.960784,-1.960784,2,1,0
0,36,16,1.411765,-7.058824,26.823529,-0.007843,-0.007843,-0.007843,-1.960784,-1.960784,-1.960784,2,2,0
0,36,17,1.411765,-7.058824,26.823529,-0.007843,-0.007843,-0.007843,-1.960784,-1.960784,-1.960784,2,2,0
0,36,18,1.411765,-7.058824,26.823529,-0.007843,-0.007843,-0.007843,-1.960784,-1.960784,-1.960784,2,2,0
0,36,19,1.411765,-7.058824,26.823529,0.007843,-0.007843,-0.007843,-1.960784,-1.960784,-1.960784,2,2,0
0,36,20,1.411765,-7.058824,26.823529,0.007843,-0.007843,-0.007843,-1.960784,-1.960784,-1.960784,2,2,0
0,36,21,1.411765,-7.058824,26.823529,-0.007843,-0.007843,-0.007843,-1.960784,-1.960784,-1.960784,2,2,0
0,36,22,1.411765,-7.058824,26.823529,-0.007843,-0.039216,0.117647,17.647059,-13.72549,-5.882353,2,2,0
0,36,23,2.823529,-8.470588,26.823529,0.007843,-0.054902,0.211765,29.411765,-45.098039,-13.72549,2,2,0
0,36,24,4.235294,-8.470588,26.823529,-0.023529,0.023529,0.196078,21.568627,-13.72549,-13.72549,2,2,0
0,36,25,2.823529,-8.470588,26.823529,0.007843,-0.086275,0.384314,-17.647059,1.960784,1.960784,2,2,0
0,36,26,1.411765,-8.470588,26.823529,0.007843,-0.054902,0.462745,-45.098039,-13.72549,-5.882353,2,2,0
0,36,27,0,-8.470588,26.823529,-0.039216,-0.007843,0.352941,-41.176471,-5.882353,-1.960784,2,2,0
0,36,28,-2.823529,-8.470588,26.823529,-0.039216,-0.14902,0.337255,-37.254902,-13.72549,-9.803922,2,2,0
0,36,29,-4.235294,-8.470588,25.411765,-0.039216,-0.054902,0.180392,-56.862745,-5.882353,-13.72549,2,2,0
0,36,30,-7.058824,-8.470588,25.411765,-0.023529,-0.070588,0.14902,-76.470588,13.72549,-13.72549,2,2,0
0,37,0,-9.882353,-8.470588,25.411765,-0.007843,-0.117647,0.164706,-88.235294,-9.803922,-21.568627,2,2,0
0,37,1,-11.294118,-8.470588,24,-0.023529,-0.054902,-0.023529,-76.470588,-21.568627,-33.333333,2,0,1
0,37,2,-14.117647,-8.470588,22.588235,-0.039216,-0.039216,-0.196078,-68.627451,-17.647059,-33.333333,2,0,1
0,37,3,-15.529412,-8.470588,21.176471,-0.039216,-0.070588,-0.337255,-64.705882,-13.72549,-37.254902,2,0,1
0,37,4,-16.941176,-9.882353,19.764706,-0.007843,-0.039216,-0.415686,-52.941176,-17.647059,-41.176471,2,0,1
0,37,5,-18.352941,-9.882353,18.352941,-0.007843,-0.039216,-0.52549,-37.254902,-29.411765,-41.176471,2,0,1
0,37,6,-18.352941,-11.294118,16.941176,0.007843,-0.086275,-0.588235,-21.568627,-37.254902,-41.176471,2,0,1
0,37,7,-18.352941,-12.705882,16.941176,0.023529,-0.101961,-0.713725,1.960784,-33.333333,-41.176471,2,0,1
0,37,8,-18.352941,-12.705882,15.529412,0.086275,-0.14902,-0.729412,25.490196,-17.647059,-41.176471,2,0,1
0,37,9,-16.941176,-12.705882,14.117647,0.14902,-0.196078,-0.666667,29.411765,-1.960784,-41.176471,2,0,1
0,37,10,-15.529412,-12.705882,12.705882,0.14902,-0.14902,-0.635294,37.254902,5.882353,-41.176471,2,0,1
0,37,11,-14.117647,-11.294118,11.294118,0.180392,-0.14902,-0.478431,45.098039,33.333333,-37.254902,2,0,1
0,37,12,-12.705882,-11.294118,9.882353,0.227451,-0.196078,-0.180392,41.176471,33.333333,-37.254902,2,0,1
0,37,13,-11.294118,-9.882353,8.470588,0.227451,-0.14902,-0.14902,64.705882,17.647059,-49.019608,2,0,1
0,37,14,-8.470588,-9.882353,7.058824,0.243137,-0.054902,-0.117647,72.54902,29.411765,-49.019608,2,0,1
0,37,15,-5.647059,-8.470588,5.647059,0.243137,-0.039216,0.007843,60.784314,25.490196,-49.019608,2,0,1
0,37,16,-4.235294,-7.058824,4.235294,0.243137,0.070588,0.023529,37.254902,37.254902,-41.176471,2,0,1
0,37,17,-2.823529,-5.647059,2.823529,0.227451,0.101961,0.180392,33.333333,45.098039,-29.411765,2,0,1
0,37,18,-2.823529,-4.235294,2.823529,0.133333,0.101961,0.164706,25.490196,56.862745,-21.568627,2,0,1
0,37,19,-2.823529,-2.823529,2.823529,0.196078,0.070588,0.4,-5.882353,60.784314,-1.960784,2,0,1
0,37,20,0,0,2.823529,0.070588,0.070588,0.258824,5.882353,25.490196,-5.882353,2,0,1
0,37,21,0,1.411765,2.823529,0.023529,0.070588,0.164706,5.882353,49.019608,9.803922,2,0,1
0,37,22,0,2.823529,2.823529,-0.007843,0.054902,0.14902,-5.882353,41.176471,13.72549,2,0,1
0,37,23,-2.823529,-2.823529,2.823529,1.278431,-0.290196,0.243137,-13.72549,-103.921569,-13.72549,2,0,1
0,37,24,-2.823529,-2.823529,2.823529,0.054902,-0.023529,-0.133333,-1.960784,9.803922,-5.882353,2,0,1
0,37,25,-2.823529,-2.823529,2.823529,0.007843,-0.023529,-0.007843,-1.960784,-1.960784,-1.960784,2,0,1
0,37,26,-2.823529,-2.823529,2.823529,-0.007843,-0.007843,-0.023529,-1.960784,-1.960784,-1.960784,2,0,1
0,37,27,-2.823529,-2.823529,2.823529,-0.023529,-0.007843,-0.007843,-1.960784,-1.960784,-1.960784,2,0,1
0,37,28,-2.823529,-2.823529,2.823529,-0.007843,-0.007843,-0.007843,-1.960784,-5.882353,-1.960784,2,0,1
0,37,29,-2.823529,-2.823529,2.823529,-0.023529,-0.007843,-0.007843,1.960784,-5.882353,-1.960784,2,0,1
0,38,0,-2.823529,-2.823529,2.823529,0.007843,-0.007843,-0.039216,-1.960784,-1.960784,-1.960784,2,0,1
0,38,1,-2.823529,-2.823529,2.823529,-0.007843,-0.007843,-0.007843,-1.960784,1.960784,-1.960784,2,0,1
0,38,2,-2.823529,-2.823529,2.823529,-0.007843,0.007843,-0.023529,-1.960784,1.960784,-1.960784,2,0,1
0,38,3,-2.823529,-2.823529,2.823529,-0.007843,0.007843,0.007843,-1.960784,-1.960784,-1.960784,2,2,1
0,38,4,-2.823529,-2.823529,2.823529,0.007843,-0.023529,-0.007843,-1.960784,-1.960784,1.960784,2,2,1
0,38,5,0,-2.823529,2.823529,0.007843,-0.023529,0.117647,9.803922,-5.882353,13.72549,2,2,1
0,38,6,0,-2.823529,2.823529,0.039216,-0.070588,0.305882,21.568627,-5.882353,-1.960784,2,2,1
0,38,7,0,-2.823529,2.823529,0.023529,-0.039216,0.227451,13.72549,-13.72549,-1.960784,2,2,1
0,38,8,0,-4.235294,2.823529,0.039216,-0.070588,0.290196,-5.882353,-13.72549,1.960784,2,2,1
0,38,9,0,-4.235294,2.823529,0.054902,-0.023529,0.258824,-17.647059,-17.647059,-1.960784,2,2,1
0,38,10,0,-4.235294,4.235294,0.039216,-0.023529,0.196078,-13.72549,-21.568627,1.960784,2,2,1
0,38,11,-2.823529,-5.647059,4.235294,0.070588,-0.070588,0.227451,-41.176471,-9.803922,5.882353,2,2,1
0,38,12,-5.647059,-5.647059,4.235294,0.14902,-0.070588,0.243137,-56.862745,-13.72549,9.803922,2,2,1
0,38,13,-7.058824,-5.647059,4.235294,0.164706,-0.054902,0.211765,-60.784314,-13.72549,13.72549,2,2,1
0,38,14,-9.882353,-7.058824,5.647059,0.211765,-0.086275,0.227451,-72.54902,-21.568627,13.72549,2,2,1
0,38,15,-11.294118,-8.470588,5.647059,0.196078,-0.039216,0.117647,-80.392157,-37.254902,13.72549,2,2,1
0,38,16,-14.117647,-9.882353,7.058824,0.164706,0.023529,-0.007843,-72.54902,-37.254902,21.568627,2,2,1
0,38,17,-15.529412,-11.294118,7.058824,0.14902,-0.007843,-0.101961,-60.784314,-45.098039,21.568627,2,2,1
0,38,18,-16.941176,-12.705882,8.470588,0.117647,0.023529,-0.243137,-45.098039,-41.176471,29.411765,2,2,1
0,38,19,-16.941176,-14.117647,9.882353,0.101961,-0.039216,-0.290196,-21.568627,-45.098039,37.254902,2,0,1
0,38,20,-16.941176,-15.529412,11.294118,0.086275,-0.039216,-0.352941,-17.647059,-49.019608,41.176471,2,0,1
0,38,21,-16.941176,-16.941176,12.705882,0.054902,-0.086275,-0.462745,-1.960784,-52.941176,41.176471,2,0,1
0,38,22,-15.529412,-18.352941,14.117647,0.039216,-0.117647,-0.556863,21.568627,-45.098039,41.176471,2,0,1
0,38,23,-15.529412,-18.352941,15.529412,0.007843,-0.117647,-0.65098,37.254902,-37.254902,37.254902,2,0,1
0,38,24,-14.117647,-18.352941,16.941176,-0.007843,-0.117647,-0.65098,33.333333,-25.490196,41.176471,2,0,1
0,38,25,-12.705882,-18.352941,18.352941,-0.039216,-0.164706,-0.619608,33.333333,-13.72549,45.098039,2,0,1
0,38,26,-11.294118,-18.352941,19.764706,-0.039216,-0.196078,-0.556863,56.862745,1.960784,37.254902,2,0,1
0,38,27,-9.882353,-18.352941,21.176471,0.007843,-0.211765,-0.4,60.784314,13.72549,29.411765,2,0,1
0,38,28,-7.058824,-16.941176,21.176471,0.023529,-0.27451,-0.290196,64.705882,5.882353,13.72549,2,0,1
0,38,29,-5.647059,-15.529412,21.176471,0.007843,-0.117647,-0.321569,60.784314,21.568627,5.882353,2,0,1
0,39,0,-4.235294,-15.529412,21.176471,0.070588,-0.101961,-0.117647,49.019608,33.333333,5.882353,2,0,1
0,39,1,-2.823529,-14.117647,21.176471,0.039216,-0.086275,-0.054902,52.941176,33.333333,-1.960784,2,0,1
0,39,2,1.411765,-11.294118,21.176471,0.039216,0.007843,0.007843,52.941176,56.862745,-5.882353,2,0,1
0,39,3,2.823529,-9.882353,21.176471,0.086275,-0.007843,0.290196,37.254902,60.784314,5.882353,2,0,1
0,39,4,2.823529,-8.470588,21.176471,0.039216,-0.039216,0.258824,37.254902,37.254902,-1.960784,2,0,1
0,39,5,4.235294,-7.058824,22.588235,0.039216,0.023529,0.352941,21.568627,41.176471,5.882353,2,0,1
0,39,6,4.235294,-5.647059,22.588235,0.039216,-0.054902,0.415686,25.490196,29.411765,-1.960784,2,0,1
0,39,7,5.647059,-5.647059,22.588235,0.023529,-0.007843,0.352941,13.72549,9.803922,-1.960784,2,0,1
0,39,8,5.647059,-4.235294,22.588235,-0.007843,-0.054902,0.211765,-5.882353,13.72549,1.960784,2,0,1
0,39,9,4.235294,-4.235294,22.588235,-0.023529,0.007843,0.101961,-17.647059,21.568627,1.960784,2,0,1
0,39,10,2.823529,0,22.588235,0.101961,-0.243137,-0.101961,-21.568627,52.941176,-1.960784,2,0,1
0,39,11,2.823529,-2.823529,22.588235,0.070588,-0.14902,-0.039216,1.960784,-13.72549,-1.960784,2,0,1
0,39,12,2.823529,-2.823529,22.588235,0.007843,-0.070588,0.007843,-1.960784,-5.882353,-5.882353,2,0,1
0,39,13,2.823529,-2.823529,22.588235,-0.070588,0.039216,-0.054902,-1.960784,1.960784,-5.882353,2,0,1
0,39,14,2.823529,-2.823529,22.588235,-0.007843,-0.007843,-0.007843,-1.960784,-1.960784,-1.960784,2,0,1
0,39,15,2.823529,-2.823529,22.588235,-0.007843,-0.007843,0.007843,-1.960784,-1.960784,-1.960784,2,0,1
0,39,16,2.823529,-2.823529,22.588235,0.007843,-0.007843,-0.007843,-1.960784,-1.960784,-1.960784,2,0,1
0,39,17,2.823529,-2.823529,22.588235,-0.007843,-0.007843,-0.007843,-1.960784,-1.960784,-1.960784,2,0,1
0,39,18,2.823529,-2.823529,22.588235,-0.007843,-0.007843,-0.007843,-1.960784,-1.960784,-1.960784,2,0,1
0,39,19,2.823529,-2.823529,22.588235,-0.007843,-0.007843,-0.007843,-1.960784,-1.960784,-1.960784,2,0,1
0,39,20,2.823529,-2.823529,22.588235,-0.007843,-0.007843,-0.007843,-1.960784,-1.960784,-1.960784,2,0,1
0,39,21,2.823529,-2.823529,22.588235,0.007843,-0.007843,-0.007843,-1.960784,-1.960784,-1.960784,2,2,0
0,39,22,2.823529,-2.823529,22.588235,-0.007843,0.007843,0.023529,-1.960784,-1.960784,-1.960784,2,2,0
0,39,23,2.823529,-2.823529,22.588235,-0.023529,-0.007843,0.023529,-1.960784,-1.960784,-1.960784,2,2,0
0,39,24,2.823529,-2.823529,22.588235,-0.007843,-0.007843,-0.007843,-1.960784,-1.960784,-1.960784,2,2,0
0,39,25,2.823529,-2.823529,22.588235,-0.023529,-0.054902,0.117647,1.960784,-13.72549,5.882353,2,2,0
0,39,26,2.823529,-4.235294,22.588235,0.007843,-0.070588,0.211765,21.568627,-41.176471,-9.803922,2,2,0
0,39,27,4.235294,-4.235294,21.176471,-0.054902,-0.054902,0.243137,25.490196,-33.333333,-25.490196,2,2,0
0,39,28,4.235294,-5.647059,21.176471,-0.070588,-0.023529,0.196078,1.960784,-25.490196,-21.568627,2,2,0
0,39,29,4.235294,-5.647059,19.764706,-0.070588,-0.023529,0.258824,-1.960784,-25.490196,-29.411765,2,2,0
0,39,30,4.235294,-7.058824,18.352941,-0.070588,-0.007843,0.196078,-5.882353,-33.333333,-33.333333,2,2,0
0,40,0,2.823529,-7.058824,16.941176,-0.039216,-0.039216,0.164706,-9.803922,-25.490196,-45.098039,2,2,0
0,40,1,1.411765,-8.470588,15.529412,-0.023529,-0.023529,0.164706,-37.254902,-21.568627,-41.176471,2,2,0
0,40,2,0,-8.470588,14.117647,0.054902,-0.101961,0.211765,-45.098039,-5.882353,-49.019608,2,2,0
0,40,3,-2.823529,-8.470588,12.705882,0.117647,-0.070588,0.243137,-45.098039,-5.882353,-52.941176,2,2,0
0,40,4,-4.235294,-8.470588,11.294118,0.133333,-0.086275,0.211765,-49.019608,5.882353,-52.941176,2,2,0
0,40,5,-5.647059,-8.470588,9.882353,0.196078,-0.117647,0.352941,-72.54902,9.803922,-52.941176,2,2,0
0,40,6,-8.470588,-8.470588,7.058824,0.196078,-0.101961,0.243137,-80.392157,-17.647059,-60.784314,2,1,0
0,40,7,-11.294118,-8.470588,5.647059,0.164706,-0.039216,-0.039216,-72.54902,-21.568627,-64.705882,2,1,0
0,40,8,-12.705882,-9.882353,2.823529,0.164706,-0.054902,-0.227451,-76.470588,-9.803922,-64.705882,2,1,0
0,40,9,-15.529412,-9.882353,1.411765,0.196078,-0.054902,-0.290196,-96.078431,-1.960784,-56.862745,2,1,0
0,40,10,-18.352941,-9.882353,0,0.211765,-0.101961,-0.337255,-88.235294,-17.647059,-56.862745,2,1,0
0,40,11,-19.764706,-11.294118,-2.823529,0.164706,-0.086275,-0.572549,-56.862745,-17.647059,-60.784314,2,1,0
0,40,12,-21.176471,-11.294118,-5.647059,0.133333,-0.117647,-0.760784,-29.411765,5.882353,-56.862745,2,1,0
0,40,13,-22.588235,-9.882353,-7.058824,0.133333,-0.133333,-0.792157,-25.490196,37.254902,-49.019608,2,1,0
0,40,14,-22.588235,-8.470588,-7.058824,0.196078,-0.070588,-0.666667,-25.490196,52.941176,-29.411765,2,1,0
0,40,15,-22.588235,-8.470588,-8.470588,0.27451,-0.164706,-0.588235,9.803922,17.647059,-17.647059,2,1,0
0,40,16,-21.176471,-9.882353,-8.470588,0.180392,-0.180392,-0.729412,52.941176,-1.960784,-21.568627,2,1,0
0,40,17,-18.352941,-9.882353,-8.470588,0.14902,-0.196078,-0.666667,60.784314,5.882353,-13.72549,2,1,0
0,40,18,-16.941176,-9.882353,-9.882353,0.117647,-0.196078,-0.541176,45.098039,-1.960784,-17.647059,2,1,0
0,40,19,-16.941176,-8.470588,-11.294118,0.054902,-0.180392,-0.509804,37.254902,5.882353,-41.176471,2,1,0
0,40,20,-14.117647,-7.058824,-12.705882,0.007843,0.054902,-0.4,49.019608,37.254902,-52.941176,2,1,0
0,40,21,-14.117647,-5.647059,-14.117647,0.086275,-0.054902,0.117647,17.647059,45.098039,-29.411765,2,1,0
0,40,22,-11.294118,-4.235294,-15.529412,0.007843,-0.007843,0.070588,41.176471,41.176471,-64.705882,2,0,0
0,40,23,-9.882353,-2.823529,-16.941176,0.117647,0.039216,0.384314,60.784314,41.176471,-49.019608,2,0,0
0,40,24,-7.058824,-2.823529,-18.352941,0.117647,-0.054902,0.384314,52.941176,5.882353,-49.019608,2,0,0
0,40,25,-5.647059,-2.823529,-19.764706,0.086275,-0.007843,0.27451,45.098039,13.72549,-52.941176,2,0,0
0,40,26,-5.647059,0,-21.176471,0.117647,0.023529,0.352941,9.803922,25.490196,-37.254902,2,0,0
