Eulerx,Eulery,Eulerz,Accx,Accy,Accz,Gx,Gy,Gz,label,Activity,Result
-2.823529,-2.823529,-21.176471,-0.007843,-0.007843,-0.023529,-1.960784,-1.960784,-1.960784,Null,2,2
-2.823529,-2.823529,-21.176471,-0.007843,-0.007843,-0.007843,-1.960784,-1.960784,-1.960784,Null,9,9
-2.823529,-2.823529,-21.176471,-0.007843,-0.007843,-0.007843,-1.960784,-1.960784,-1.960784,Null,9,9
-2.823529,-2.823529,-21.176471,-0.007843,-0.007843,-0.007843,-1.960784,-1.960784,-1.960784,Null,9,9
-2.823529,-2.823529,-21.176471,-0.007843,-0.007843,-0.007843,-1.960784,-1.960784,-1.960784,Null,9,9
-2.823529,-2.823529,-21.176471,-0.007843,-0.007843,-0.007843,-1.960784,-1.960784,-1.960784,Null,9,9
-2.823529,-2.823529,-21.176471,-0.007843,-0.007843,-0.007843,-1.960784,-1.960784,-1.960784,Null,9,9
-2.823529,0,-21.176471,-0.007843,-0.007843,-0.007843,-1.960784,-1.960784,-1.960784,Null,9,9
-2.823529,0,-21.176471,-0.007843,-0.007843,-0.007843,-1.960784,-1.960784,-1.960784,Null,9,9
-2.823529,-2.823529,-21.176471,-0.007843,-0.007843,-0.007843,-1.960784,-1.960784,-1.960784,Null,9,9
-2.823529,-2.823529,-21.176471,-0.007843,-0.007843,-0.007843,-1.960784,-1.960784,-1.960784,Null,9,9
-2.823529,-2.823529,-21.176471,-0.007843,-0.007843,-0.007843,-1.960784,-1.960784,-1.960784,Null,9,9
-2.823529,-2.823529,-21.176471,-0.007843,-0.007843,-0.007843,-1.960784,-1.960784,-1.960784,Null,9,9
-2.823529,-2.823529,-21.176471,-0.007843,-0.007843,-0.007843,-1.960784,-1.960784,-1.960784,Null,9,9
-2.823529,-2.823529,-21.176471,-0.007843,-0.007843,-0.007843,-1.960784,-1.960784,-1.960784,Null,9,9
-2.823529,-2.823529,-21.176471,-0.007843,-0.007843,-0.007843,-1.960784,-1.960784,-1.960784,Null,9,9
-2.823529,0,-21.176471,-0.007843,-0.007843,-0.007843,-1.960784,-1.960784,-1.960784,Null,9,9
-2.823529,0,-21.176471,-0.007843,-0.007843,-0.007843,-1.960784,-1.960784,-1.960784,Null,2,9
-2.823529,0,-21.176471,-0.007843,-0.007843,-0.007843,-1.960784,-1.960784,-1.960784,Null,2,9
-2.823529,0,-21.176471,-0.007843,-0.007843,-0.007843,-1.960784,-1.960784,-1.960784,Null,2,9
-2.823529,0,-21.176471,0.007843,-0.007843,-0.039216,-1.960784,-1.960784,-1.960784,Null,2,9
-2.823529,0,-21.176471,-0.007843,-0.007843,-0.007843,-1.960784,-1.960784,-1.960784,Null,2,9
-2.823529,0,-21.176471,-0.007843,-0.007843,-0.007843,-1.960784,-1.960784,-1.960784,Null,2,9
-2.823529,0,-21.176471,-0.007843,-0.007843,-0.007843,-1.960784,-1.960784,-1.960784,Null,2,9
-2.823529,0,-21.176471,-0.007843,-0.007843,-0.007843,-1.960784,-1.960784,-1.960784,Null,2,9
-2.823529,0,-21.176471,-0.007843,-0.007843,-0.007843,-1.960784,-1.960784,-1.960784,Null,2,9
-2.823529,0,-21.176471,-0.007843,-0.007843,-0.007843,-1.960784,-1.960784,-1.960784,Null,2,9
-2.823529,0,-21.176471,-0.007843,-0.007843,-0.007843,-1.960784,-1.960784,-1.960784,Null,2,9
-2.823529,0,-21.176471,-0.007843,-0.007843,-0.007843,-1.960784,-1.960784,-1.960784,Null,2,9
-2.823529,0,-21.176471,-0.007843,-0.007843,-0.007843,-1.960784,-1.960784,-1.960784,Null,2,9
-2.823529,0,-21.176471,-0.007843,-0.007843,-0.007843,-1.960784,-1.960784,-1.960784,Null,2,9
-2.823529,0,-21.176471,-0.007843,-0.007843,-0.007843,-1.960784,-1.960784,-1.960784,Null,2,9
-2.823529,0,-21.176471,-0.007843,-0.007843,-0.007843,-1.960784,-1.960784,-1.960784,Null,2,9
-2.823529,0,-21.176471,-0.007843,-0.007843,-0.007843,-1.960784,-1.960784,-1.960784,Null,2,9
-2.823529,0,-21.176471,-0.007843,-0.007843,-0.007843,-1.960784,-1.960784,-1.960784,Null,2,9
-2.823529,0,-21.176471,-0.007843,-0.007843,-0.007843,-1.960784,-1.960784,-1.960784,Null,2,9
0,-2.823529,-21.176471,-0.007843,-0.007843,0.007843,-1.960784,-1.960784,-1.960784,Null,2,9
0,-2.823529,-21.176471,-0.007843,-0.007843,0.007843,-1.960784,-1.960784,-1.960784,Null,2,9
-2.823529,-2.823529,-21.176471,-0.007843,-0.007843,-0.007843,-1.960784,-1.960784,-1.960784,Null,2,9
0,0,-21.176471,-0.007843,-0.007843,-0.007843,-1.960784,-1.960784,-1.960784,Null,2,9
0,-2.823529,-21.176471,-0.007843,-0.007843,-0.007843,-1.960784,-1.960784,-1.960784,Null,2,9
0,-2.823529,-21.176471,-0.007843,-0.007843,-0.007843,-1.960784,-1.960784,-1.960784,Null,2,9
0,-2.823529,-21.176471,-0.007843,-0.007843,-0.007843,-1.960784,-1.960784,-1.960784,Null,2,9
0,0,-21.176471,-0.007843,-0.007843,-0.007843,-1.960784,-1.960784,-1.960784,Null,2,9
0,-2.823529,-21.176471,-0.007843,-0.007843,-0.007843,-1.960784,-1.960784,-1.960784,Null,2,9
0,-2.823529,-21.176471,-0.007843,-0.007843,-0.007843,-1.960784,-1.960784,-1.960784,Null,2,9
0,-2.823529,-21.176471,-0.007843,-0.007843,-0.007843,-1.960784,-1.960784,-1.960784,Null,2,9
0,-2.823529,-21.176471,-0.007843,-0.023529,-0.007843,-1.960784,-1.960784,-1.960784,Null,2,9
0,0,-21.176471,-0.023529,-0.007843,-0.007843,-1.960784,-1.960784,-1.960784,Null,2,9
0,-2.823529,-21.176471,-0.007843,-0.007843,-0.007843,-1.960784,-1.960784,-1.960784,Null,2,9
0,-2.823529,-21.176471,-0.007843,-0.007843,-0.007843,-1.960784,-1.960784,-1.960784,Null,2,9
0,-2.823529,-21.176471,-0.007843,-0.007843,-0.007843,-1.960784,-1.960784,-1.960784,Null,2,9
0,-2.823529,-21.176471,-0.007843,-0.007843,-0.007843,-1.960784,-1.960784,-1.960784,Null,2,9
0,-2.823529,-21.176471,-0.007843,-0.007843,-0.007843,-1.960784,-1.960784,-1.960784,Null,2,9
0,-2.823529,-21.176471,-0.023529,-0.007843,-0.007843,-1.960784,-1.960784,-1.960784,Null,2,9
0,-2.823529,-21.176471,-0.007843,-0.007843,-0.007843,-1.960784,-1.960784,-1.960784,Null,2,9
0,-2.823529,-21.176471,-0.007843,-0.007843,-0.007843,-1.960784,-1.960784,-1.960784,Null,2,9
0,-2.823529,-21.176471,-0.007843,-0.007843,-0.007843,-1.960784,-1.960784,-1.960784,Null,2,9
0,-2.823529,-21.176471,-0.007843,-0.007843,-0.007843,-1.960784,-1.960784,-1.960784,Null,2,9
0,-2.823529,-21.176471,-0.007843,-0.007843,-0.007843,-1.960784,-1.960784,-1.960784,Null,2,9
0,-2.823529,-21.176471,-0.007843,-0.007843,-0.007843,-1.960784,-1.960784,-1.960784,Null,2,9
0,-2.823529,-21.176471,-0.007843,-0.007843,-0.007843,-1.960784,-1.960784,-1.960784,Null,2,9
0,-2.823529,-21.176471,-0.007843,-0.007843,-0.007843,-1.960784,-1.960784,-1.960784,Null,2,9
0,-2.823529,-21.176471,-0.007843,-0.007843,-0.007843,-1.960784,-1.960784,-1.960784,Null,2,9
0,-2.823529,-21.176471,-0.007843,-0.007843,-0.007843,-1.960784,-1.960784,-1.960784,Null,2,9
0,-2.823529,-21.176471,0.007843,-0.007843,-0.007843,-1.960784,-1.960784,-1.960784,Null,2,9
0,-2.823529,-21.176471,-0.007843,-0.007843,-0.007843,-1.960784,-1.960784,-1.960784,Null,2,9
0,-2.823529,-21.176471,-0.007843,-0.007843,-0.007843,-1.960784,-1.960784,-1.960784,Null,2,9
0,-2.823529,-21.176471,-0.007843,-0.007843,-0.007843,-1.960784,-1.960784,-1.960784,Null,2,9
0,-2.823529,-21.176471,-0.007843,-0.007843,-0.007843,-1.960784,-1.960784,-1.960784,Null,2,9
0,-2.823529,-21.176471,-0.007843,-0.007843,-0.007843,-1.960784,-1.960784,-1.960784,Null,2,9
0,-2.823529,-21.176471,-0.007843,-0.007843,-0.007843,-1.960784,-1.960784,-1.960784,Null,2,9
0,-2.823529,-21.176471,-0.007843,-0.007843,-0.007843,-1.960784,-1.960784,-1.960784,Null,2,9
-2.823529,-2.823529,-21.176471,-0.007843,-0.007843,-0.007843,-1.960784,-1.960784,-1.960784,Null,2,9
0,-2.823529,-21.176471,-0.007843,-0.007843,-0.007843,-1.960784,-1.960784,-1.960784,Null,2,9
0,-2.823529,-21.176471,-0.007843,-0.007843,-0.007843,-1.960784,-1.960784,-1.960784,Null,2,9
0,-2.823529,-21.176471,-0.007843,-0.007843,-0.007843,-1.960784,-1.960784,-1.960784,Null,2,9
0,-2.823529,-21.176471,-0.007843,-0.007843,-0.007843,-1.960784,-1.960784,-1.960784,Null,2,9
0,-2.823529,-21.176471,-0.007843,-0.007843,-0.007843,-1.960784,-1.960784,-1.960784,Null,2,9
0,-2.823529,-21.176471,-0.007843,-0.007843,-0.007843,-1.960784,-1.960784,-1.960784,Null,2,9
0,-2.823529,-21.176471,-0.007843,-0.007843,-0.007843,-1.960784,-1.960784,-1.960784,Null,2,9
0,-2.823529,-21.176471,-0.007843,-0.007843,-0.007843,-1.960784,-1.960784,-1.960784,Null,2,2
0,-2.823529,-21.176471,-0.007843,-0.007843,-0.007843,-1.960784,-1.960784,-1.960784,Null,2,2
0,-2.823529,-21.176471,-0.007843,-0.007843,-0.007843,-1.960784,-1.960784,-1.960784,Null,2,2
0,-2.823529,-21.176471,-0.007843,-0.007843,-0.007843,-1.960784,-1.960784,-1.960784,Null,2,2
0,-2.823529,-21.176471,-0.007843,-0.007843,-0.007843,-1.960784,-1.960784,-1.960784,Null,2,2
0,-2.823529,-21.176471,-0.007843,-0.007843,-0.007843,-1.960784,-1.960784,-1.960784,Null,2,2
0,-2.823529,-21.176471,-0.007843,-0.007843,-0.007843,-1.960784,-1.960784,-1.960784,Null,2,2
0,-2.823529,-21.176471,-0.007843,-0.007843,-0.007843,-1.960784,-1.960784,-1.960784,Null,2,2
0,-2.823529,-21.176471,-0.007843,-0.007843,-0.007843,-1.960784,-1.960784,-1.960784,Null,2,2
0,-2.823529,-21.176471,-0.007843,-0.007843,-0.007843,-1.960784,-1.960784,-1.960784,Null,2,2
0,-2.823529,-21.176471,-0.007843,-0.007843,-0.007843,-1.960784,-1.960784,-1.960784,Null,2,2
0,-2.823529,-21.176471,-0.007843,-0.007843,-0.007843,-1.960784,-1.960784,-1.960784,Null,2,2
0,-2.823529,-21.176471,-0.007843,-0.007843,-0.007843,-1.960784,-1.960784,-1.960784,Null,2,2
0,-2.823529,-21.176471,-0.007843,-0.007843,-0.007843,-1.960784,-1.960784,-1.960784,Null,2,2
0,-2.823529,-21.176471,-0.007843,-0.007843,-0.007843,-1.960784,-1.960784,-1.960784,Null,2,2
0,-2.823529,-21.176471,-0.007843,-0.007843,-0.007843,-1.960784,-1.960784,-1.960784,Null,2,2
0,-2.823529,-21.176471,-0.007843,-0.007843,-0.007843,-1.960784,-1.960784,-1.960784,Null,2,2
0,-2.823529,-21.176471,-0.007843,-0.007843,-0.007843,-1.960784,-1.960784,-1.960784,Null,2,2
0,-2.823529,-21.176471,-0.007843,-0.007843,-0.007843,-1.960784,-1.960784,-1.960784,Null,2,2
0,-2.823529,-21.176471,-0.007843,-0.007843,-0.007843,-1.960784,-1.960784,-1.960784,Null,2,2
0,-2.823529,-21.176471,-0.007843,-0.007843,-0.023529,-1.960784,-1.960784,-1.960784,Null,2,2
0,-2.823529,-21.176471,-0.007843,-0.007843,-0.007843,-1.960784,-1.960784,-1.960784,Null,2,2
0,-2.823529,-21.176471,-0.007843,-0.007843,-0.007843,-1.960784,-1.960784,-1.960784,Null,2,2
0,-2.823529,-21.176471,-0.007843,-0.007843,-0.007843,-1.960784,-1.960784,-1.960784,Null,2,2
0,0,-21.176471,-0.007843,-0.007843,-0.007843,-1.960784,-1.960784,-1.960784,Null,2,2
0,0,-21.176471,-0.007843,-0.007843,-0.007843,-1.960784,-1.960784,-1.960784,Null,2,2
0,0,-21.176471,-0.007843,-0.007843,-0.007843,-1.960784,-1.960784,-1.960784,Null,2,2
0,0,-21.176471,-0.007843,-0.007843,-0.007843,-1.960784,-1.960784,-1.960784,Null,2,2
0,-2.823529,-21.176471,-0.007843,-0.007843,-0.007843,-1.960784,-1.960784,-1.960784,Null,2,2
0,-2.823529,-21.176471,-0.007843,-0.007843,-0.007843,-1.960784,-1.960784,-1.960784,Null,2,2
0,0,-21.176471,-0.007843,-0.007843,-0.007843,-1.960784,-1.960784,-1.960784,Null,2,2
0,0,-21.176471,-0.007843,-0.007843,-0.007843,-1.960784,-1.960784,-1.960784,Null,2,2
0,0,-21.176471,-0.007843,-0.007843,-0.007843,-1.960784,-1.960784,-1.960784,Null,2,2
0,0,-21.176471,-0.007843,-0.007843,-0.007843,-1.960784,-1.960784,-1.960784,Null,2,2
0,0,-21.176471,-0.007843,-0.007843,-0.007843,-1.960784,-1.960784,-1.960784,Null,2,2
0,0,-21.176471,-0.007843,-0.007843,-0.007843,-1.960784,-1.960784,-1.960784,Null,2,2
0,0,-21.176471,-0.007843,-0.007843,-0.007843,-1.960784,-1.960784,-1.960784,Null,2,2
0,0,-21.176471,-0.007843,-0.007843,-0.007843,-1.960784,-1.960784,-1.960784,Null,2,2
0,0,-21.176471,-0.007843,-0.007843,-0.007843,-1.960784,-1.960784,-1.960784,Null,2,2
0,-2.823529,-21.176471,-0.007843,-0.007843,-0.007843,-1.960784,-1.960784,-1.960784,Null,2,2
0,-2.823529,-21.176471,-0.007843,-0.007843,-0.007843,-1.960784,-1.960784,-1.960784,Null,2,2
-2.823529,-2.823529,-21.176471,-0.007843,-0.007843,-0.007843,-1.960784,-1.960784,-1.960784,Null,2,2
0,-2.823529,-21.176471,-0.007843,-0.007843,-0.007843,-1.960784,-1.960784,-1.960784,Null,2,2
0,-2.823529,-21.176471,-0.007843,-0.007843,-0.007843,-1.960784,-1.960784,-1.960784,Null,2,2
0,-2.823529,-21.176471,-0.007843,-0.007843,-0.007843,-1.960784,-1.960784,-1.960784,Null,2,2
0,-2.823529,-21.176471,-0.007843,-0.007843,-0.007843,-1.960784,-1.960784,-1.960784,Null,2,2
0,0,-21.176471,-0.007843,-0.007843,-0.007843,-1.960784,-1.960784,-1.960784,Null,2,2
0,-2.823529,-21.176471,-0.007843,-0.007843,-0.007843,-1.960784,-1.960784,-1.960784,Null,2,2
0,-2.823529,-21.176471,-0.007843,-0.007843,-0.007843,-1.960784,-1.960784,-1.960784,Null,2,2
0,-2.823529,-21.176471,-0.007843,-0.007843,-0.007843,-1.960784,-1.960784,-1.960784,Null,2,2
0,-2.823529,-21.176471,-0.007843,-0.007843,-0.007843,-1.960784,-1.960784,-1.960784,Null,2,2
0,-2.823529,-21.176471,-0.007843,-0.007843,-0.007843,-1.960784,-1.960784,-1.960784,Null,2,2
0,-2.823529,-21.176471,-0.007843,-0.007843,-0.007843,-1.960784,-1.960784,-1.960784,Null,2,2
0,-2.823529,-21.176471,-0.007843,-0.007843,-0.007843,-1.960784,-1.960784,-1.960784,Null,2,2
0,-2.823529,-21.176471,-0.007843,-0.007843,-0.007843,-1.960784,-1.960784,-1.960784,Null,2,2
0,-2.823529,-21.176471,-0.007843,-0.007843,-0.007843,-1.960784,-1.960784,-1.960784,Null,2,2
0,-2.823529,-21.176471,-0.007843,-0.007843,-0.007843,-1.960784,-1.960784,-1.960784,Null,2,2
0,-2.823529,-21.176471,-0.007843,-0.007843,-0.007843,-1.960784,-1.960784,-1.960784,Null,2,2
0,-2.823529,-21.176471,-0.007843,-0.007843,-0.007843,-1.960784,-1.960784,-1.960784,Null,2,2
0,-2.823529,-21.176471,-0.007843,-0.007843,-0.007843,-1.960784,-1.960784,-1.960784,Null,2,2
0,-2.823529,-21.176471,-0.007843,-0.007843,-0.007843,-1.960784,-1.960784,-1.960784,Null,2,2
0,-2.823529,-21.176471,-0.007843,-0.007843,-0.007843,-1.960784,-1.960784,-1.960784,Null,2,2
0,-2.823529,-21.176471,-0.007843,-0.007843,-0.007843,-1.960784,-1.960784,-1.960784,Null,2,2
0,-2.823529,-21.176471,-0.007843,-0.007843,-0.007843,-1.960784,-1.960784,-1.960784,Null,2,2
0,0,-21.176471,-0.007843,-0.007843,-0.007843,-1.960784,-1.960784,-1.960784,Null,2,2
0,-2.823529,-21.176471,-0.007843,-0.007843,-0.007843,-1.960784,-1.960784,-1.960784,Null,2,2
0,-2.823529,-21.176471,-0.007843,-0.007843,-0.007843,-1.960784,-1.960784,-1.960784,Null,2,2
0,-2.823529,-21.176471,-0.007843,-0.007843,-0.007843,-1.960784,-1.960784,-1.960784,Null,2,2
0,-2.823529,-21.176471,-0.007843,-0.007843,-0.007843,-1.960784,-1.960784,-1.960784,Null,2,2
0,-2.823529,-21.176471,-0.007843,-0.007843,-0.007843,-1.960784,-1.960784,-1.960784,Null,2,2
0,-2.823529,-21.176471,-0.007843,-0.007843,-0.007843,-1.960784,-1.960784,-1.960784,Null,2,2
0,-2.823529,-21.176471,-0.007843,-0.007843,-0.007843,-1.960784,-1.960784,-1.960784,Null,2,2
0,-2.823529,-21.176471,-0.007843,-0.007843,-0.007843,-1.960784,-1.960784,-1.960784,Null,2,2
0,-2.823529,-21.176471,-0.007843,-0.007843,-0.007843,-1.960784,-1.960784,-1.960784,Null,2,2
0,0,-21.176471,-0.007843,-0.007843,-0.007843,-1.960784,-1.960784,-1.960784,Null,2,2
0,-2.823529,-21.176471,-0.007843,-0.007843,-0.007843,-1.960784,-1.960784,-1.960784,Null,2,2
0,-2.823529,-21.176471,-0.007843,-0.007843,-0.007843,-1.960784,-1.960784,-1.960784,Null,2,2
0,-2.823529,-21.176471,-0.007843,-0.007843,-0.007843,-1.960784,-1.960784,-1.960784,Null,2,2
0,-2.823529,-21.176471,-0.007843,-0.007843,-0.007843,-1.960784,-1.960784,-1.960784,Null,2,2
0,-2.823529,-21.176471,-0.007843,-0.007843,-0.007843,-1.960784,-1.960784,-1.960784,Null,2,2
0,-2.823529,-21.176471,0.007843,-0.007843,-0.007843,-1.960784,-1.960784,-1.960784,Null,2,2
0,-2.823529,-21.176471,-0.007843,-0.007843,-0.007843,-1.960784,-1.960784,-1.960784,Null,2,2
0,-2.823529,-21.176471,-0.007843,-0.007843,-0.007843,-1.960784,-1.960784,-1.960784,Null,2,2
0,-2.823529,-21.176471,-0.007843,-0.007843,-0.007843,-1.960784,-1.960784,-1.960784,Null,2,2
0,-2.823529,-21.176471,-0.007843,-0.007843,-0.007843,-1.960784,-1.960784,-1.960784,Null,2,2
0,-2.823529,-21.176471,-0.007843,-0.007843,-0.007843,-1.960784,-1.960784,-1.960784,Null,2,2
0,-2.823529,-21.176471,-0.007843,-0.007843,-0.007843,-1.960784,-1.960784,-1.960784,Null,2,2
-2.823529,-2.823529,-21.176471,-0.007843,-0.007843,-0.007843,-1.960784,-1.960784,-1.960784,Null,2,2
0,-2.823529,-21.176471,-0.007843,-0.007843,-0.007843,-1.960784,-1.960784,-1.960784,Null,2,2
0,-2.823529,-21.176471,-0.007843,-0.007843,-0.007843,-1.960784,-1.960784,-1.960784,Null,2,2
0,-2.823529,-21.176471,-0.007843,-0.007843,-0.007843,-1.960784,-1.960784,-1.960784,Null,2,2
0,-2.823529,-21.176471,-0.007843,-0.007843,-0.007843,-1.960784,-1.960784,-1.960784,Null,2,2
-2.823529,-2.823529,-21.176471,-0.007843,-0.007843,-0.007843,-1.960784,-1.960784,-1.960784,Null,2,2
-2.823529,-2.823529,-21.176471,-0.007843,-0.007843,-0.007843,-1.960784,-1.960784,-1.960784,Null,2,2
-2.823529,-2.823529,-21.176471,-0.007843,-0.007843,-0.007843,-1.960784,-1.960784,-1.960784,Null,2,2
-2.823529,-2.823529,-21.176471,-0.007843,-0.007843,-0.007843,-1.960784,-1.960784,-1.960784,Null,2,2
-2.823529,-2.823529,-21.176471,-0.007843,-0.007843,-0.007843,-1.960784,-1.960784,-1.960784,Null,2,2
-2.823529,-2.823529,-21.176471,-0.007843,-0.007843,-0.007843,-1.960784,-1.960784,-1.960784,Null,2,2
-2.823529,-2.823529,-21.176471,-0.007843,-0.007843,-0.007843,-1.960784,-1.960784,-1.960784,Null,2,2
-2.823529,-2.823529,-21.176471,-0.007843,-0.007843,-0.007843,-1.960784,-1.960784,-1.960784,Null,2,2
-2.823529,-2.823529,-21.176471,-0.007843,-0.007843,-0.007843,-1.960784,-1.960784,-1.960784,Null,2,2
-2.823529,-2.823529,-21.176471,-0.007843,-0.007843,-0.007843,-1.960784,-1.960784,-1.960784,Null,2,2
-2.823529,0,-21.176471,-0.007843,-0.007843,-0.007843,-1.960784,-1.960784,-1.960784,Null,2,2
0,0,-21.176471,-0.007843,-0.007843,-0.007843,-1.960784,-1.960784,-1.960784,Null,2,2
-2.823529,0,-21.176471,-0.007843,-0.007843,-0.007843,-1.960784,-1.960784,-1.960784,Null,2,2
-2.823529,-2.823529,-21.176471,-0.007843,-0.007843,-0.007843,-1.960784,-1.960784,-1.960784,Null,2,2
-2.823529,-2.823529,-21.176471,-0.007843,-0.007843,-0.007843,-1.960784,-1.960784,-1.960784,Null,2,2
-2.823529,-2.823529,-21.176471,-0.007843,-0.007843,-0.007843,-1.960784,-1.960784,-1.960784,Null,2,2
-2.823529,-2.823529,-21.176471,-0.007843,-0.007843,-0.007843,-1.960784,-1.960784,-1.960784,Null,2,2
-2.823529,-2.823529,-21.176471,-0.007843,-0.007843,-0.007843,-1.960784,-1.960784,-1.960784,Null,2,2
-2.823529,0,-21.176471,-0.007843,-0.007843,-0.007843,-1.960784,-1.960784,-1.960784,Null,2,2
-2.823529,-2.823529,-21.176471,-0.007843,-0.007843,-0.007843,-1.960784,-1.960784,-1.960784,Null,2,2
0,-2.823529,-21.176471,-0.007843,-0.007843,-0.007843,-1.960784,-1.960784,-1.960784,Null,2,2
-2.823529,-2.823529,-21.176471,-0.007843,-0.007843,-0.007843,-1.960784,-1.960784,-1.960784,Null,2,2
0,-2.823529,-21.176471,-0.007843,-0.007843,-0.007843,-1.960784,-1.960784,-1.960784,Null,2,2
0,-2.823529,-21.176471,-0.007843,-0.007843,-0.007843,-1.960784,-1.960784,-1.960784,Null,2,2
0,-2.823529,-21.176471,-0.007843,-0.007843,-0.007843,-1.960784,-1.960784,-1.960784,Null,2,2
0,-2.823529,-21.176471,-0.007843,-0.007843,-0.007843,-1.960784,-1.960784,-1.960784,Null,2,2
0,-2.823529,-21.176471,-0.007843,-0.007843,-0.007843,-1.960784,-1.960784,-1.960784,Null,2,2
0,-2.823529,-21.176471,-0.007843,-0.007843,-0.007843,-1.960784,-1.960784,-1.960784,Null,2,2
0,-2.823529,-21.176471,-0.007843,-0.007843,-0.007843,-1.960784,-1.960784,-1.960784,Null,2,2
0,-2.823529,-21.176471,-0.007843,-0.007843,-0.007843,-1.960784,-1.960784,-1.960784,Null,2,2
0,-2.823529,-21.176471,-0.007843,-0.007843,-0.007843,-1.960784,-1.960784,-1.960784,Null,2,2
0,-2.823529,-21.176471,-0.007843,-0.007843,-0.007843,-1.960784,-1.960784,-1.960784,Null,2,2
0,-2.823529,-21.176471,-0.007843,-0.007843,-0.007843,-1.960784,-1.960784,-1.960784,Null,2,2
0,-2.823529,-21.176471,-0.007843,-0.007843,-0.007843,-1.960784,-1.960784,-1.960784,Null,2,2
0,-2.823529,-21.176471,-0.337255,0.007843,0.65098,5.882353,-33.333333,-5.882353,Null,2,2
0,-2.823529,-21.176471,-1.043137,0.117647,0.964706,5.882353,-37.254902,-1.960784,Null,2,2
0,-4.235294,-21.176471,-0.164706,-0.007843,0.196078,-1.960784,-9.803922,-1.960784,Null,1,2
0,-2.823529,-21.176471,0.039216,-0.101961,-0.447059,-5.882353,5.882353,-1.960784,Null,1,2
0,-2.823529,-21.176471,0.007843,-0.007843,-0.164706,-5.882353,1.960784,-1.960784,Null,1,2
0,-2.823529,-21.176471,0.070588,-0.117647,-0.133333,1.960784,1.960784,-37.254902,Null,1,2
0,-2.823529,-22.588235,0.007843,0.133333,-0.086275,-5.882353,1.960784,-17.647059,Null,1,2
0,-2.823529,-22.588235,-0.023529,0.007843,0.054902,-1.960784,-5.882353,-9.803922,Null,1,2
0,-2.823529,-22.588235,-0.117647,0.054902,0.007843,1.960784,-1.960784,1.960784,Null,1,2
0,0,-21.176471,0.196078,0.086275,0.101961,-5.882353,37.254902,45.098039,Null,1,2
-2.823529,2.823529,-19.764706,0.086275,-0.290196,0.854902,-13.72549,88.235294,17.647059,Null,1,2
-2.823529,1.411765,-21.176471,0.101961,-0.054902,0.94902,-25.490196,-29.411765,-17.647059,Null,1,2
-4.235294,-2.823529,-19.764706,0.023529,-0.007843,0.384314,-45.098039,-96.078431,21.568627,Null,1,2
-5.647059,-5.647059,-18.352941,-0.023529,0.070588,0.101961,-29.411765,-84.313725,25.490196,Null,1,2
-7.058824,-7.058824,-18.352941,0.039216,0.14902,-0.023529,-41.176471,-56.862745,25.490196,Null,1,2
-8.470588,-9.882353,-15.529412,0.321569,0.007843,0.164706,-60.784314,-76.470588,56.862745,Null,1,2
-8.470588,-12.705882,-15.529412,0.196078,-0.039216,-0.117647,-29.411765,-100,29.411765,Null,1,2
-8.470588,-16.941176,-14.117647,0.070588,0.054902,-0.494118,13.72549,-92.156863,13.72549,Null,1,2
-7.058824,-18.352941,-14.117647,0.054902,0.039216,-0.713725,25.490196,-64.705882,5.882353,Null,0,2
-5.647059,-18.352941,-14.117647,-0.007843,0.039216,-0.870588,13.72549,-33.333333,17.647059,Null,0,2
-4.235294,-18.352941,-12.705882,0.023529,0.133333,-0.886275,1.960784,13.72549,21.568627,Null,0,2
-4.235294,-16.941176,-11.294118,0.039216,0.023529,-0.713725,-1.960784,17.647059,41.176471,Null,0,2
-4.235294,-16.941176,-11.294118,-0.023529,-0.054902,-0.635294,25.490196,17.647059,17.647059,Null,0,2
-2.823529,-14.117647,-9.882353,-0.070588,0.023529,-0.462745,25.490196,41.176471,9.803922,Null,0,2
0,-12.705882,-9.882353,-0.054902,-0.054902,-0.27451,29.411765,52.941176,17.647059,Null,0,2
0,-9.882353,-8.470588,-0.164706,-0.070588,0.086275,29.411765,52.941176,29.411765,Null,0,2
1.411765,-8.470588,-7.058824,-0.086275,-0.164706,0.180392,33.333333,45.098039,33.333333,Null,0,2
2.823529,-7.058824,-7.058824,-0.007843,-0.180392,0.243137,33.333333,45.098039,17.647059,Null,0,2
2.823529,-5.647059,-7.058824,0.007843,-0.133333,0.431373,29.411765,25.490196,13.72549,Null,0,2
4.235294,-5.647059,-7.058824,-0.039216,-0.164706,0.384314,33.333333,13.72549,-1.960784,Null,0,2
5.647059,-4.235294,-5.647059,0.023529,-0.164706,0.588235,33.333333,21.568627,5.882353,Null,0,2
5.647059,-5.647059,-5.647059,0.101961,-0.227451,0.745098,9.803922,-13.72549,9.803922,Null,0,2
4.235294,-5.647059,-5.647059,-0.023529,-0.180392,0.603922,-21.568627,-9.803922,13.72549,Null,0,2
2.823529,-4.235294,-4.235294,-0.023529,-0.211765,0.713725,-33.333333,9.803922,21.568627,Null,0,2
1.411765,-5.647059,-4.235294,0.101961,-0.321569,0.698039,-33.333333,-25.490196,5.882353,Null,1,1
0,-8.470588,-4.235294,-0.054902,-0.14902,0.478431,-41.176471,-68.627451,-21.568627,Null,1,1
-2.823529,-9.882353,-5.647059,-0.117647,-0.117647,0.180392,-45.098039,-64.705882,-33.333333,Null,1,1
-4.235294,-11.294118,-7.058824,-0.101961,-0.101961,-0.101961,-37.254902,-52.941176,-41.176471,Null,1,1
-5.647059,-11.294118,-8.470588,-0.133333,-0.054902,-0.352941,-41.176471,-37.254902,-37.254902,Null,1,1
-7.058824,-12.705882,-8.470588,-0.054902,-0.070588,-0.462745,-45.098039,-25.490196,-25.490196,Null,1,1
-7.058824,-12.705882,-9.882353,0.023529,-0.054902,-0.666667,-37.254902,-9.803922,-33.333333,Null,1,1
-8.470588,-12.705882,-11.294118,0.039216,0.023529,-0.729412,-29.411765,-1.960784,-33.333333,Null,1,1
-8.470588,-12.705882,-12.705882,0.101961,0.039216,-0.745098,-21.568627,9.803922,-33.333333,Null,1,1
-9.882353,-12.705882,-12.705882,0.14902,-0.007843,-0.682353,-25.490196,5.882353,-25.490196,Null,1,1
-8.470588,-11.294118,-14.117647,0.054902,0.133333,-0.682353,-5.882353,33.333333,-52.941176,Null,1,1
-8.470588,-9.882353,-15.529412,0.196078,0.227451,-0.478431,-1.960784,33.333333,-17.647059,Null,1,1
-7.058824,-9.882353,-15.529412,0.101961,0.086275,-0.290196,9.803922,25.490196,-9.803922,Null,1,1
-7.058824,-8.470588,-15.529412,0.180392,0.086275,-0.023529,21.568627,41.176471,-17.647059,Null,1,1
-5.647059,-7.058824,-15.529412,0.27451,-0.007843,0.117647,21.568627,29.411765,1.960784,Null,1,1
-4.235294,-5.647059,-16.941176,0.258824,-0.070588,0.054902,29.411765,29.411765,-21.568627,Null,1,1
-2.823529,-5.647059,-16.941176,0.227451,0.039216,0.227451,37.254902,21.568627,-1.960784,Null,1,1
0,-5.647059,-16.941176,0.211765,-0.196078,0.243137,49.019608,5.882353,-17.647059,Null,1,1
0,-5.647059,-18.352941,0.133333,-0.070588,0.196078,37.254902,9.803922,-33.333333,Null,1,1
1.411765,-4.235294,-18.352941,0.101961,0.086275,0.337255,17.647059,17.647059,-9.803922,Null,1,1
2.823529,-4.235294,-18.352941,0.180392,-0.070588,0.290196,33.333333,1.960784,-5.882353,Null,1,1
4.235294,-4.235294,-19.764706,0.117647,0.007843,0.27451,45.098039,-1.960784,-21.568627,Null,1,1
4.235294,-4.235294,-19.764706,0.164706,0.007843,0.321569,5.882353,-5.882353,-1.960784,Null,1,1
2.823529,-4.235294,-18.352941,0.258824,-0.054902,0.352941,-29.411765,-1.960784,21.568627,Null,1,1
1.411765,-5.647059,-18.352941,0.27451,-0.023529,0.384314,-33.333333,-29.411765,17.647059,Null,1,1
1.411765,-7.058824,-16.941176,0.27451,0.227451,0.258824,-33.333333,-52.941176,21.568627,Null,1,1
0,-9.882353,-15.529412,0.243137,0.211765,0.054902,-21.568627,-41.176471,29.411765,Null,1,1
1.411765,-9.882353,-15.529412,0.211765,0.164706,-0.14902,-5.882353,-33.333333,21.568627,Null,1,1
1.411765,-11.294118,-14.117647,0.243137,0.086275,-0.243137,1.960784,-41.176471,33.333333,Null,1,1
1.411765,-12.705882,-12.705882,0.164706,0.133333,-0.384314,5.882353,-25.490196,33.333333,Null,1,1
1.411765,-12.705882,-11.294118,0.101961,0.070588,-0.352941,13.72549,-9.803922,29.411765,Null,1,1
2.823529,-12.705882,-11.294118,0.054902,-0.007843,-0.337255,21.568627,-1.960784,21.568627,Null,1,1
2.823529,-12.705882,-9.882353,0.023529,0.023529,-0.305882,13.72549,13.72549,33.333333,Null,1,1
2.823529,-11.294118,-8.470588,-0.007843,-0.039216,-0.211765,13.72549,9.803922,37.254902,Null,1,1
4.235294,-11.294118,-8.470588,-0.054902,-0.117647,-0.211765,33.333333,9.803922,9.803922,Null,1,1
5.647059,-9.882353,-8.470588,-0.054902,-0.054902,-0.14902,41.176471,9.803922,-9.803922,Null,1,1
7.058824,-9.882353,-8.470588,-0.117647,-0.007843,-0.117647,25.490196,13.72549,1.960784,Null,1,1
7.058824,-8.470588,-8.470588,-0.133333,-0.039216,-0.007843,5.882353,29.411765,13.72549,Null,1,1
5.647059,-7.058824,-7.058824,-0.023529,-0.086275,0.196078,-1.960784,17.647059,9.803922,Null,1,1
7.058824,-7.058824,-7.058824,-0.039216,0.007843,0.14902,5.882353,9.803922,1.960784,Null,1,1
7.058824,-7.058824,-7.058824,-0.007843,-0.007843,0.164706,5.882353,5.882353,13.72549,Null,1,1
1.411765,0,-5.647059,0.886275,-0.27451,-0.745098,-135.294118,182.352941,29.411765,Null,1,1
1.411765,0,-7.058824,0.290196,0.14902,-0.258824,-13.72549,45.098039,-25.490196,Null,1,1
1.411765,1.411765,-7.058824,-0.133333,-0.054902,-0.180392,1.960784,1.960784,-5.882353,Null,1,1
1.411765,0,-7.058824,-0.086275,0.007843,0.101961,-1.960784,-9.803922,-1.960784,Null,1,1
2.823529,0,-5.647059,-0.101961,-0.14902,0.337255,25.490196,-33.333333,5.882353,Null,1,1
2.823529,0,-7.058824,0.164706,-0.164706,0.384314,9.803922,-9.803922,-13.72549,Null,1,1
2.823529,0,-8.470588,0.007843,-0.180392,0.462745,1.960784,13.72549,-37.254902,Null,1,1
2.823529,-2.823529,-8.470588,-0.14902,-0.039216,0.305882,5.882353,-25.490196,-25.490196,Null,1,1
2.823529,-2.823529,-8.470588,-0.101961,-0.133333,0.211765,1.960784,-41.176471,-5.882353,Null,1,1
2.823529,-4.235294,-9.882353,-0.117647,-0.117647,-0.007843,-5.882353,-37.254902,-33.333333,Null,1,1
1.411765,-5.647059,-9.882353,-0.086275,0.101961,-0.039216,-37.254902,-25.490196,-21.568627,Null,1,1
0,-5.647059,-9.882353,-0.086275,-0.039216,-0.243137,-56.862745,-25.490196,5.882353,Null,1,1
-4.235294,-5.647059,-11.294118,-0.117647,-0.054902,-0.447059,-52.941176,-1.960784,-13.72549,Null,1,1
-4.235294,-4.235294,-11.294118,-0.101961,-0.007843,-0.462745,-17.647059,1.960784,-29.411765,Null,1,1
-4.235294,-4.235294,-12.705882,0.054902,0.039216,-0.478431,-21.568627,13.72549,-17.647059,Null,1,1
-5.647059,-4.235294,-12.705882,0.054902,-0.070588,-0.462745,-25.490196,13.72549,-9.803922,Null,1,1
-5.647059,-2.823529,-14.117647,-0.007843,-0.023529,-0.462745,1.960784,25.490196,-37.254902,Null,1,1
-4.235294,-2.823529,-14.117647,0.14902,0.086275,-0.290196,9.803922,17.647059,-37.254902,Null,1,1
-4.235294,-2.823529,-15.529412,0.101961,0.007843,-0.290196,13.72549,5.882353,-37.254902,Null,1,1
-2.823529,-2.823529,-16.941176,0.086275,0.180392,-0.14902,21.568627,9.803922,-41.176471,Null,1,1
0,0,-18.352941,0.133333,0.117647,-0.023529,33.333333,17.647059,-37.254902,Null,1,1
1.411765,0,-18.352941,0.164706,0.117647,0.086275,33.333333,9.803922,-21.568627,Null,1,1
1.411765,0,-19.764706,0.164706,0.070588,0.070588,21.568627,13.72549,-25.490196,Null,1,1
2.823529,1.411765,-19.764706,0.133333,0.133333,0.133333,21.568627,25.490196,-13.72549,Null,1,1
2.823529,1.411765,-19.764706,0.196078,0.039216,0.243137,17.647059,1.960784,-5.882353,Null,1,1
4.235294,1.411765,-21.176471,0.117647,0.070588,0.101961,13.72549,5.882353,-21.568627,Null,1,1
4.235294,1.411765,-21.176471,0.070588,0.164706,0.133333,1.960784,9.803922,-1.960784,Null,1,1
2.823529,1.411765,-19.764706,0.133333,0.14902,0.211765,-29.411765,9.803922,13.72549,Null,1,1
1.411765,1.411765,-19.764706,0.14902,-0.054902,0.164706,-60.784314,9.803922,25.490196,Null,1,1
1.411765,0,-18.352941,-0.14902,-0.023529,0.964706,-1.960784,-41.176471,17.647059,Null,1,1
1.411765,0,-19.764706,-0.117647,0.117647,0.27451,1.960784,5.882353,-17.647059,Null,1,1
1.411765,1.411765,-18.352941,0.14902,-0.054902,-0.070588,13.72549,9.803922,9.803922,Null,1,1
1.411765,0,-18.352941,0.023529,-0.039216,-0.023529,1.960784,-9.803922,5.882353,Null,1,1
1.411765,0,-18.352941,0.007843,0.023529,-0.007843,-5.882353,-17.647059,17.647059,Null,1,1
1.411765,0,-16.941176,0.039216,-0.070588,0.023529,-1.960784,-17.647059,5.882353,Null,1,1
1.411765,-2.823529,-18.352941,-0.007843,-0.023529,-0.007843,1.960784,-17.647059,-9.803922,Null,1,1
1.411765,-2.823529,-18.352941,-0.086275,0.086275,-0.086275,-1.960784,-5.882353,-5.882353,Null,1,1
1.411765,0,-18.352941,-0.054902,0.023529,-0.101961,-9.803922,13.72549,5.882353,Null,1,1
0,0,-16.941176,-0.101961,-0.054902,-0.133333,-21.568627,25.490196,5.882353,Null,1,1
0,1.411765,-16.941176,-0.039216,-0.023529,-0.039216,-1.960784,13.72549,5.882353,Null,1,1
1.411765,1.411765,-16.941176,-0.243137,0.023529,0.117647,-1.960784,-9.803922,-5.882353,Null,1,1
0,1.411765,-16.941176,-0.086275,-0.054902,0.023529,-1.960784,-5.882353,-1.960784,Null,1,1
0,1.411765,-16.941176,0.007843,-0.007843,-0.007843,-1.960784,-1.960784,-1.960784,Null,1,1
0,1.411765,-16.941176,-0.007843,-0.007843,-0.023529,-1.960784,-1.960784,-1.960784,Null,1,1
0,1.411765,-16.941176,0.007843,-0.007843,-0.054902,-1.960784,-1.960784,-1.960784,Null,1,1
0,1.411765,-16.941176,-0.023529,-0.023529,-0.007843,-1.960784,-1.960784,-1.960784,Null,1,1
0,1.411765,-16.941176,-0.007843,-0.007843,-0.007843,-1.960784,-1.960784,-1.960784,Null,1,1
0,1.411765,-16.941176,-0.007843,-0.007843,-0.007843,-1.960784,-1.960784,-1.960784,Null,1,1
0,1.411765,-16.941176,-0.007843,-0.007843,-0.007843,-1.960784,-1.960784,-1.960784,Null,1,1
0,1.411765,-16.941176,-0.007843,-0.007843,-0.007843,-1.960784,-1.960784,-1.960784,Null,1,1
0,1.411765,-16.941176,-0.007843,-0.007843,-0.007843,-1.960784,-1.960784,-1.960784,Null,1,1
0,0,-16.941176,-0.007843,-0.007843,-0.007843,-1.960784,-1.960784,-1.960784,Null,1,1
0,0,-16.941176,-0.007843,-0.007843,-0.007843,-1.960784,-1.960784,-1.960784,Null,1,1
0,0,-16.941176,-0.007843,-0.007843,-0.007843,-1.960784,-1.960784,-1.960784,Null,1,1
0,0,-16.941176,-0.007843,-0.007843,-0.007843,-1.960784,-1.960784,-1.960784,Null,1,1
0,0,-16.941176,-0.007843,-0.007843,-0.007843,-1.960784,-1.960784,-1.960784,Null,2,1
0,0,-16.941176,-0.007843,-0.007843,-0.007843,-1.960784,-1.960784,-1.960784,Null,2,1
0,0,-16.941176,-0.007843,-0.007843,-0.007843,-1.960784,-1.960784,-1.960784,Null,2,1
0,0,-16.941176,-0.007843,-0.007843,-0.007843,-1.960784,-1.960784,-1.960784,Null,2,1
0,0,-16.941176,-0.007843,-0.007843,-0.007843,-1.960784,-1.960784,-1.960784,Null,2,1
0,0,-16.941176,-0.007843,-0.007843,-0.007843,-1.960784,-1.960784,-1.960784,Null,2,1
0,0,-16.941176,-0.007843,-0.007843,-0.007843,-1.960784,-1.960784,-1.960784,Null,2,1
0,0,-16.941176,-0.007843,-0.007843,-0.007843,-1.960784,-1.960784,-1.960784,Null,2,1
0,0,-16.941176,-0.007843,-0.007843,-0.023529,-1.960784,-1.960784,-1.960784,Null,2,1
0,0,-16.941176,-0.007843,-0.007843,-0.007843,-1.960784,-1.960784,-1.960784,Null,2,1
0,0,-16.941176,-0.007843,-0.007843,-0.007843,-1.960784,-1.960784,-1.960784,Null,2,1
0,0,-16.941176,-0.007843,-0.007843,-0.007843,-1.960784,-1.960784,-1.960784,Null,2,1
0,0,-16.941176,-0.007843,-0.007843,-0.007843,-1.960784,-1.960784,-1.960784,Null,2,1
0,0,-16.941176,-0.007843,-0.007843,-0.007843,-1.960784,-1.960784,-1.960784,Null,2,1
0,0,-16.941176,-0.007843,-0.007843,-0.007843,-1.960784,-1.960784,-1.960784,Null,2,1
0,0,-16.941176,-0.007843,-0.007843,-0.007843,-1.960784,-1.960784,-1.960784,Null,2,1
0,0,-16.941176,-0.007843,-0.007843,-0.007843,-1.960784,-1.960784,-1.960784,Null,2,1
0,0,-16.941176,-0.007843,-0.007843,-0.007843,-1.960784,-1.960784,-1.960784,Null,2,1
0,0,-16.941176,-0.007843,-0.007843,-0.007843,-1.960784,-1.960784,-1.960784,Null,2,1
0,0,-16.941176,-0.007843,-0.007843,-0.007843,-1.960784,-1.960784,-1.960784,Null,2,1
0,0,-16.941176,-0.007843,-0.007843,-0.007843,-1.960784,-1.960784,-1.960784,Null,2,1
0,0,-16.941176,-0.007843,-0.007843,-0.007843,-1.960784,-1.960784,-1.960784,Null,2,1
0,0,-16.941176,-0.007843,-0.007843,-0.007843,-1.960784,-1.960784,-1.960784,Null,2,1
0,0,-16.941176,-0.007843,-0.007843,-0.007843,-1.960784,-1.960784,-1.960784,Null,2,1
0,0,-16.941176,-0.007843,-0.007843,-0.007843,-1.960784,-1.960784,-1.960784,Null,2,1
0,0,-16.941176,-0.007843,-0.007843,-0.007843,-1.960784,-1.960784,-1.960784,Null,2,1
0,0,-16.941176,-0.007843,-0.007843,-0.007843,-1.960784,-1.960784,-1.960784,Null,2,1
0,0,-16.941176,-0.007843,-0.007843,-0.007843,-1.960784,-1.960784,-1.960784,Null,2,1
0,0,-16.941176,-0.007843,-0.007843,-0.007843,-1.960784,-1.960784,-1.960784,Null,2,1
0,0,-16.941176,-0.007843,-0.007843,-0.007843,-1.960784,-1.960784,-1.960784,Null,2,1
0,0,-16.941176,-0.023529,-0.007843,-0.007843,-1.960784,-1.960784,-1.960784,Null,2,1
0,0,-16.941176,0.007843,-0.007843,-0.007843,-1.960784,-1.960784,-1.960784,Null,2,1
0,0,-16.941176,-0.007843,-0.007843,-0.007843,-1.960784,-1.960784,-1.960784,Null,2,1
0,0,-16.941176,-0.007843,-0.007843,-0.007843,-1.960784,-1.960784,-1.960784,Null,2,1
0,0,-16.941176,-0.007843,-0.007843,-0.007843,-1.960784,-1.960784,-1.960784,Null,2,1
0,0,-16.941176,-0.007843,-0.023529,-0.007843,-1.960784,-1.960784,-1.960784,Null,2,1
0,0,-16.941176,-0.023529,0.007843,-0.007843,-1.960784,-1.960784,-1.960784,Null,2,1
0,0,-16.941176,0.007843,-0.007843,-0.007843,-1.960784,-1.960784,-1.960784,Null,2,1
0,0,-16.941176,-0.007843,-0.007843,-0.007843,-1.960784,-1.960784,-1.960784,Null,2,1
0,0,-16.941176,-0.007843,-0.007843,-0.007843,-1.960784,-1.960784,-1.960784,Null,2,1
0,0,-16.941176,-0.007843,-0.007843,-0.007843,-1.960784,-1.960784,-1.960784,Null,2,1
0,0,-16.941176,0.007843,-0.007843,-0.007843,-1.960784,-1.960784,-1.960784,Null,2,1
0,0,-16.941176,-0.023529,-0.007843,-0.007843,-1.960784,-1.960784,-1.960784,Null,2,1
0,0,-16.941176,-0.007843,0.007843,-0.007843,-1.960784,-1.960784,-1.960784,Null,2,1
0,0,-16.941176,-0.007843,-0.007843,-0.007843,-1.960784,-1.960784,-1.960784,Null,2,1
0,0,-16.941176,-0.007843,-0.007843,-0.007843,-1.960784,-1.960784,-1.960784,Null,2,1
0,0,-16.941176,-0.007843,-0.007843,-0.007843,-1.960784,-1.960784,-1.960784,Null,2,1
0,0,-16.941176,-0.007843,-0.007843,-0.007843,-1.960784,-1.960784,-1.960784,Null,2,1
0,0,-16.941176,-0.007843,-0.007843,-0.007843,-1.960784,-1.960784,-1.960784,Null,2,1
0,0,-16.941176,-0.007843,-0.007843,-0.023529,-1.960784,-1.960784,-1.960784,Null,2,1
0,0,-16.941176,-0.007843,-0.007843,-0.007843,-1.960784,-1.960784,-1.960784,Null,2,1
0,0,-16.941176,-0.007843,-0.007843,-0.007843,-1.960784,-1.960784,-1.960784,Null,2,1
0,0,-16.941176,-0.007843,-0.007843,-0.007843,-1.960784,-1.960784,-1.960784,Null,2,1
0,0,-16.941176,-0.007843,-0.007843,-0.007843,-1.960784,-1.960784,-1.960784,Null,2,1
0,0,-16.941176,-0.007843,-0.007843,-0.007843,-1.960784,-1.960784,-1.960784,Null,2,1
0,0,-16.941176,-0.007843,-0.007843,-0.007843,-1.960784,-1.960784,-1.960784,Null,2,1
0,0,-16.941176,-0.007843,-0.007843,-0.007843,-1.960784,-1.960784,-1.960784,Null,2,1
0,0,-16.941176,-0.007843,-0.007843,-0.007843,-1.960784,-1.960784,-1.960784,Null,2,1
0,0,-16.941176,-0.007843,-0.007843,-0.007843,-1.960784,-1.960784,-1.960784,Null,2,1
0,0,-16.941176,-0.007843,-0.007843,-0.007843,-1.960784,-1.960784,-1.960784,Null,2,1
0,0,-16.941176,-0.007843,-0.007843,-0.007843,-1.960784,-1.960784,-1.960784,Null,2,1
0,0,-16.941176,-0.007843,-0.007843,-0.007843,-1.960784,-1.960784,-1.960784,Null,2,1
0,0,-16.941176,-0.007843,-0.007843,-0.007843,-1.960784,-1.960784,-1.960784,Null,2,1
0,0,-16.941176,-0.007843,-0.007843,-0.007843,-1.960784,-1.960784,-1.960784,Null,2,1
0,0,-16.941176,-0.007843,-0.007843,-0.007843,-1.960784,-1.960784,-1.960784,Null,2,2
0,0,-16.941176,-0.007843,-0.007843,-0.007843,-1.960784,-1.960784,-1.960784,Null,2,2
0,0,-16.941176,-0.007843,-0.007843,-0.007843,-1.960784,-1.960784,-1.960784,Null,2,2
0,0,-16.941176,-0.007843,-0.007843,-0.007843,-1.960784,-1.960784,-1.960784,Null,2,2
0,0,-16.941176,-0.007843,-0.007843,-0.007843,-1.960784,-1.960784,-1.960784,Null,2,2
0,0,-16.941176,-0.007843,-0.007843,-0.007843,-1.960784,-1.960784,-1.960784,Null,2,2
0,0,-16.941176,-0.007843,-0.007843,-0.007843,-1.960784,-1.960784,-1.960784,Null,2,2
0,0,-16.941176,-0.007843,-0.007843,-0.007843,-1.960784,-1.960784,-1.960784,Null,2,2
0,0,-16.941176,-0.007843,-0.007843,-0.007843,-1.960784,-1.960784,-1.960784,Null,2,2
0,0,-16.941176,-0.007843,-0.007843,-0.007843,-1.960784,-1.960784,-1.960784,Null,2,2
0,0,-16.941176,-0.007843,-0.007843,-0.007843,-1.960784,-1.960784,-1.960784,Null,2,2
0,0,-16.941176,-0.007843,-0.007843,-0.007843,-1.960784,-1.960784,-1.960784,Null,2,2
0,0,-16.941176,-0.007843,-0.007843,-0.007843,-1.960784,-1.960784,-1.960784,Null,2,2
0,0,-16.941176,-0.007843,-0.007843,-0.007843,-1.960784,-1.960784,-1.960784,Null,2,2
0,0,-16.941176,-0.007843,-0.007843,-0.007843,-1.960784,-1.960784,-1.960784,Null,2,2
0,0,-16.941176,-0.007843,-0.007843,-0.007843,-1.960784,-1.960784,-1.960784,Null,2,2
0,0,-16.941176,-0.007843,-0.007843,-0.007843,-1.960784,-1.960784,-1.960784,Null,2,2
0,0,-16.941176,-0.007843,-0.007843,-0.007843,-1.960784,-1.960784,-1.960784,Null,2,2
0,0,-16.941176,-0.007843,-0.007843,-0.007843,-1.960784,-1.960784,-1.960784,Null,2,2
0,0,-16.941176,-0.007843,-0.007843,-0.007843,-1.960784,-1.960784,-1.960784,Null,2,2
0,0,-16.941176,-0.007843,-0.007843,-0.007843,-1.960784,-1.960784,-1.960784,Null,2,2
0,0,-16.941176,-0.007843,-0.007843,-0.007843,-1.960784,-1.960784,-1.960784,Null,2,2
0,0,-16.941176,-0.007843,-0.007843,-0.007843,-1.960784,-1.960784,-1.960784,Null,2,2
0,0,-16.941176,-0.007843,-0.007843,-0.007843,-1.960784,-1.960784,-1.960784,Null,2,2
0,0,-16.941176,-0.007843,-0.007843,-0.007843,-1.960784,-1.960784,-1.960784,Null,2,2
0,0,-16.941176,-0.007843,-0.007843,-0.007843,-1.960784,-1.960784,-1.960784,Null,2,2
0,0,-16.941176,-0.007843,-0.007843,-0.007843,-1.960784,-1.960784,-1.960784,Null,2,2
0,0,-16.941176,-0.007843,-0.007843,-0.007843,-1.960784,-1.960784,-1.960784,Null,2,2
0,0,-16.941176,-0.007843,-0.007843,-0.007843,-1.960784,-1.960784,-1.960784,Null,2,2
0,0,-16.941176,-0.007843,-0.007843,-0.007843,-1.960784,-1.960784,-1.960784,Null,2,2
0,0,-16.941176,-0.007843,-0.007843,-0.007843,-1.960784,-1.960784,-1.960784,Null,2,2
0,0,-16.941176,-0.007843,-0.007843,-0.007843,-1.960784,-1.960784,-1.960784,Null,2,2
0,0,-16.941176,-0.007843,-0.007843,-0.007843,-1.960784,-1.960784,-1.960784,Null,2,2
0,0,-16.941176,-0.007843,-0.007843,-0.007843,-1.960784,-1.960784,-1.960784,Null,2,2
0,0,-16.941176,-0.007843,-0.007843,-0.007843,-1.960784,-1.960784,-1.960784,Null,2,2
0,0,-16.941176,-0.007843,-0.007843,-0.007843,-1.960784,-1.960784,-1.960784,Null,2,2
0,0,-16.941176,-0.007843,-0.007843,-0.007843,-1.960784,-1.960784,-1.960784,Null,2,2
0,0,-16.941176,-0.007843,-0.007843,-0.007843,-1.960784,-1.960784,-1.960784,Null,2,2
0,0,-16.941176,-0.007843,-0.007843,-0.007843,-1.960784,-1.960784,-1.960784,Null,2,2
0,0,-16.941176,-0.007843,-0.007843,-0.007843,-1.960784,-1.960784,-1.960784,Null,2,2
0,0,-16.941176,-0.007843,-0.007843,-0.007843,-1.960784,-1.960784,-1.960784,Null,2,2
0,0,-16.941176,-0.007843,-0.007843,-0.007843,-1.960784,-1.960784,-1.960784,Null,2,2
0,0,-16.941176,-0.007843,-0.007843,-0.007843,-1.960784,-1.960784,-1.960784,Null,2,2
0,0,-16.941176,-0.007843,-0.007843,-0.007843,-1.960784,-1.960784,-1.960784,Null,2,2
0,0,-16.941176,-0.007843,-0.007843,-0.007843,-1.960784,-1.960784,-1.960784,Null,2,2
0,0,-16.941176,-0.007843,-0.007843,-0.007843,-1.960784,-1.960784,-1.960784,Null,2,2
0,0,-16.941176,-0.007843,-0.007843,-0.007843,-1.960784,-1.960784,-1.960784,Null,2,2
0,0,-16.941176,-0.007843,-0.007843,-0.007843,-1.960784,-1.960784,-1.960784,Null,2,2
0,0,-16.941176,-0.007843,-0.007843,-0.007843,-1.960784,-1.960784,-1.960784,Null,2,2
0,0,-16.941176,-0.007843,-0.007843,-0.007843,-1.960784,-1.960784,-1.960784,Null,2,2
0,0,-16.941176,-0.007843,-0.007843,-0.007843,-1.960784,-1.960784,-1.960784,Null,2,2
0,0,-16.941176,-0.007843,-0.007843,-0.007843,-1.960784,-1.960784,-1.960784,Null,2,2
0,0,-16.941176,-0.007843,-0.007843,-0.007843,-1.960784,-1.960784,-1.960784,Null,2,2
0,0,-16.941176,-0.007843,-0.007843,-0.007843,-1.960784,-1.960784,-1.960784,Null,2,2
0,0,-16.941176,-0.007843,-0.007843,-0.007843,-1.960784,-1.960784,-1.960784,Null,2,2
0,0,-16.941176,-0.007843,-0.007843,-0.007843,-1.960784,-1.960784,-1.960784,Null,2,2
0,0,-16.941176,-0.007843,-0.007843,-0.007843,-1.960784,-1.960784,-1.960784,Null,2,2
0,0,-16.941176,-0.007843,-0.007843,-0.007843,-1.960784,-1.960784,-1.960784,Null,2,2
0,0,-16.941176,-0.007843,-0.007843,-0.007843,-1.960784,-1.960784,-1.960784,Null,2,2
0,0,-16.941176,-0.007843,-0.007843,-0.007843,-1.960784,-1.960784,-1.960784,Null,2,2
0,0,-16.941176,-0.007843,-0.007843,-0.007843,-1.960784,-1.960784,-1.960784,Null,2,2
0,0,-16.941176,-0.007843,-0.007843,-0.007843,-1.960784,-1.960784,-1.960784,Null,2,2
0,0,-16.941176,-0.007843,-0.007843,-0.007843,-1.960784,-1.960784,-1.960784,Null,2,2
0,0,-16.941176,-0.023529,-0.007843,-0.007843,-1.960784,-1.960784,-1.960784,Null,2,2
0,0,-16.941176,-0.007843,-0.007843,-0.007843,-1.960784,-1.960784,-1.960784,Null,2,2
0,0,-16.941176,-0.007843,-0.007843,-0.007843,-1.960784,-1.960784,-1.960784,Null,2,2
0,0,-16.941176,-0.007843,-0.007843,-0.007843,-1.960784,-1.960784,-1.960784,Null,2,2
0,0,-16.941176,-0.007843,-0.007843,-0.007843,-1.960784,-1.960784,-1.960784,Null,2,2
0,0,-16.941176,-0.007843,-0.007843,-0.007843,-1.960784,-1.960784,-1.960784,Null,2,2
0,0,-16.941176,-0.007843,-0.007843,-0.007843,-1.960784,-1.960784,-1.960784,Null,2,2
0,0,-16.941176,-0.007843,-0.007843,-0.007843,-1.960784,-1.960784,-1.960784,Null,2,2
0,0,-16.941176,-0.007843,-0.007843,0.007843,-1.960784,-1.960784,-1.960784,Null,2,2
0,0,-16.941176,-0.007843,-0.007843,-0.007843,-1.960784,-1.960784,-1.960784,Null,2,2
0,0,-16.941176,-0.007843,-0.007843,-0.023529,-1.960784,-1.960784,-1.960784,Null,2,2
0,0,-16.941176,-0.007843,-0.007843,-0.007843,-1.960784,-1.960784,-1.960784,Null,2,2
0,0,-16.941176,-0.007843,-0.007843,-0.007843,-1.960784,-1.960784,-1.960784,2,2,2
0,0,-16.941176,-0.007843,-0.007843,-0.007843,-1.960784,-1.960784,-1.960784,2,2,2
0,0,-16.941176,-0.007843,-0.007843,-0.007843,-1.960784,-1.960784,-1.960784,2,2,2
0,0,-16.941176,-0.007843,-0.007843,-0.007843,-1.960784,-1.960784,-1.960784,2,2,2
0,0,-16.941176,0.007843,-0.007843,-0.023529,-1.960784,-1.960784,-1.960784,2,2,2
0,0,-16.941176,-0.007843,-0.007843,-0.007843,-1.960784,-1.960784,-1.960784,2,2,2
0,0,-16.941176,-0.007843,0.007843,-0.023529,-1.960784,-1.960784,-1.960784,2,2,2
0,0,-16.941176,-0.007843,-0.007843,-0.007843,-1.960784,-1.960784,-1.960784,2,2,2
0,0,-16.941176,-0.007843,-0.007843,-0.007843,-1.960784,-1.960784,-1.960784,2,2,2
0,0,-16.941176,-0.054902,0.054902,0.007843,5.882353,-1.960784,5.882353,2,2,2
0,0,-16.941176,-0.007843,0.007843,-0.007843,-1.960784,-1.960784,17.647059,2,2,2
0,0,-15.529412,0.007843,-0.039216,-0.007843,9.803922,1.960784,1.960784,2,2,2
0,0,-16.941176,-0.023529,-0.007843,0.117647,1.960784,-5.882353,-13.72549,2,2,2
0,-2.823529,-16.941176,-0.039216,0.039216,0.14902,-1.960784,-17.647059,-9.803922,2,2,2
0,-2.823529,-16.941176,0.023529,0.039216,0.196078,5.882353,-13.72549,-1.960784,2,2,2
1.411765,-2.823529,-16.941176,0.070588,0.070588,0.337255,9.803922,-13.72549,-5.882353,2,2,2
1.411765,-4.235294,-16.941176,0.070588,0.117647,0.337255,1.960784,-21.568627,13.72549,2,2,2
1.411765,-4.235294,-15.529412,0.054902,0.117647,0.305882,13.72549,-17.647059,17.647059,2,2,2
2.823529,-5.647059,-15.529412,0.086275,0.070588,0.227451,29.411765,-17.647059,5.882353,2,2,2
4.235294,-5.647059,-15.529412,0.101961,0.070588,0.086275,49.019608,-1.960784,-13.72549,2,2,2
5.647059,-5.647059,-15.529412,0.133333,0.117647,0.070588,49.019608,1.960784,-13.72549,2,2,2
7.058824,-5.647059,-16.941176,0.14902,0.133333,0.007843,41.176471,-1.960784,-9.803922,2,2,2
8.470588,-5.647059,-16.941176,0.14902,0.164706,-0.054902,41.176471,-1.960784,-13.72549,2,2,2
9.882353,-5.647059,-16.941176,0.14902,0.14902,-0.101961,37.254902,-1.960784,-17.647059,2,2,2
11.294118,-5.647059,-18.352941,0.180392,0.164706,-0.14902,41.176471,1.960784,-21.568627,2,2,2
12.705882,-5.647059,-18.352941,0.180392,0.14902,-0.14902,37.254902,1.960784,-21.568627,2,2,2
14.117647,-5.647059,-19.764706,0.164706,0.164706,-0.164706,33.333333,-5.882353,-29.411765,2,2,2
14.117647,-7.058824,-19.764706,0.14902,0.180392,-0.227451,17.647059,-17.647059,-25.490196,2,2,2
15.529412,-7.058824,-21.176471,0.117647,0.164706,-0.352941,13.72549,-25.490196,-33.333333,2,2,2
15.529412,-8.470588,-22.588235,0.086275,0.14902,-0.4,17.647059,-17.647059,-41.176471,2,2,2
15.529412,-8.470588,-24,0.054902,0.117647,-0.478431,13.72549,-9.803922,-45.098039,2,2,2
15.529412,-8.470588,-25.411765,0.039216,0.086275,-0.462745,-1.960784,1.960784,-45.098039,2,2,2
15.529412,-8.470588,-26.823529,0.023529,0.133333,-0.384314,-17.647059,1.960784,-45.098039,2,2,2
14.117647,-8.470588,-28.235294,0.007843,0.14902,-0.290196,-29.411765,-13.72549,-37.254902,2,2,2
12.705882,-8.470588,-29.647059,-0.054902,0.164706,-0.321569,-33.333333,-25.490196,-33.333333,2,2,2
11.294118,-8.470588,-29.647059,-0.070588,0.070588,-0.384314,-45.098039,-21.568627,-21.568627,2,2,2
9.882353,-8.470588,-31.058824,-0.086275,0.023529,-0.27451,-52.941176,-1.960784,-25.490196,2,2,2
7.058824,-8.470588,-31.058824,-0.070588,0.101961,-0.086275,-64.705882,-1.960784,-21.568627,2,1,2
5.647059,-8.470588,-31.058824,-0.086275,0.14902,-0.007843,-68.627451,-13.72549,-13.72549,2,1,2
4.235294,-8.470588,-32.470588,-0.133333,0.070588,0.039216,-56.862745,-1.960784,-5.882353,2,1,2
1.411765,-8.470588,-32.470588,-0.086275,0.039216,0.070588,-52.941176,9.803922,-1.960784,2,1,2
1.411765,-7.058824,-32.470588,-0.023529,0.054902,0.243137,-41.176471,13.72549,-1.960784,2,1,2
0,-7.058824,-32.470588,-0.039216,0.039216,0.27451,-33.333333,1.960784,-5.882353,2,1,2
-2.823529,-7.058824,-32.470588,-0.023529,-0.039216,0.321569,-25.490196,5.882353,-9.803922,2,1,2
-4.235294,-7.058824,-32.470588,0.023529,-0.023529,0.258824,-33.333333,-9.803922,1.960784,2,1,2
-4.235294,-7.058824,-32.470588,-0.023529,0.086275,0.368627,-21.568627,-1.960784,-5.882353,2,1,2
-4.235294,-7.058824,-32.470588,-0.070588,0.070588,0.305882,-13.72549,-1.960784,5.882353,2,1,2
-4.235294,-5.647059,-32.470588,0.007843,-0.007843,0.27451,1.960784,21.568627,-5.882353,2,1,2
-4.235294,-5.647059,-32.470588,-0.007843,0.070588,0.431373,9.803922,9.803922,-9.803922,2,1,2
-2.823529,-5.647059,-32.470588,-0.054902,0.101961,0.4,21.568627,-5.882353,1.960784,2,1,2
0,-5.647059,-32.470588,-0.101961,0.007843,0.321569,29.411765,-5.882353,5.882353,2,1,2
1.411765,-5.647059,-32.470588,-0.086275,0.070588,0.321569,41.176471,-5.882353,5.882353,2,1,2
2.823529,-5.647059,-31.058824,-0.070588,0.070588,0.258824,45.098039,-17.647059,17.647059,2,1,2
4.235294,-5.647059,-31.058824,-0.117647,0.054902,0.196078,49.019608,-13.72549,9.803922,2,1,2
5.647059,-5.647059,-29.647059,-0.164706,0.164706,0.211765,41.176471,-17.647059,21.568627,2,1,2
7.058824,-5.647059,-29.647059,-0.164706,0.196078,0.164706,52.941176,-17.647059,29.411765,2,1,2
9.882353,-5.647059,-28.235294,-0.180392,0.196078,0.039216,68.627451,-5.882353,41.176471,2,1,2
12.705882,-5.647059,-25.411765,-0.164706,0.101961,-0.101961,72.54902,5.882353,45.098039,2,1,2
14.117647,-4.235294,-24,-0.101961,0.086275,-0.164706,68.627451,13.72549,45.098039,2,1,2
16.941176,-4.235294,-22.588235,-0.054902,0.101961,-0.258824,64.705882,9.803922,45.098039,2,1,2
18.352941,-4.235294,-21.176471,-0.039216,0.101961,-0.384314,60.784314,9.803922,45.098039,2,1,2
19.764706,-2.823529,-19.764706,-0.023529,0.101961,-0.494118,41.176471,9.803922,49.019608,2,1,2
19.764706,-2.823529,-18.352941,-0.007843,0.070588,-0.572549,25.490196,9.803922,49.019608,2,1,2
19.764706,-2.823529,-15.529412,0.023529,0.164706,-0.541176,5.882353,9.803922,52.941176,2,1,2
19.764706,-2.823529,-14.117647,0.086275,0.180392,-0.588235,-9.803922,-5.882353,56.862745,2,1,2
19.764706,-2.823529,-12.705882,0.101961,0.133333,-0.666667,-25.490196,-1.960784,60.784314,2,1,2
18.352941,-2.823529,-9.882353,0.180392,0.023529,-0.603922,-37.254902,9.803922,49.019608,2,1,2
15.529412,-2.823529,-9.882353,0.211765,0.007843,-0.384314,-49.019608,17.647059,37.254902,2,1,2
14.117647,-2.823529,-8.470588,0.27451,0.070588,-0.27451,-64.705882,13.72549,33.333333,2,1,2
11.294118,-2.823529,-7.058824,0.305882,0.039216,-0.054902,-68.627451,-1.960784,29.411765,2,0,2
8.470588,-4.235294,-5.647059,0.27451,0.101961,-0.023529,-76.470588,-25.490196,37.254902,2,0,2
7.058824,-5.647059,-4.235294,0.243137,0.054902,-0.039216,-68.627451,-9.803922,41.176471,2,0,2
4.235294,-5.647059,-2.823529,0.227451,0.039216,0.14902,-76.470588,1.960784,49.019608,2,0,2
2.823529,-5.647059,0,0.290196,0.039216,0.305882,-68.627451,-21.568627,29.411765,2,0,2
0,-7.058824,1.411765,0.258824,0.070588,0.243137,-64.705882,-21.568627,33.333333,2,0,2
-2.823529,-7.058824,1.411765,0.243137,0.023529,0.321569,-45.098039,-1.960784,25.490196,2,0,2
-4.235294,-7.058824,2.823529,0.305882,0.023529,0.321569,-37.254902,-1.960784,25.490196,2,0,2
-4.235294,-7.058824,2.823529,0.27451,-0.023529,0.290196,-17.647059,5.882353,9.803922,2,0,2
-2.823529,-5.647059,4.235294,0.337255,0.117647,0.65098,25.490196,56.862745,9.803922,2,0,2
-2.823529,-5.647059,4.235294,0.227451,-0.180392,0.290196,5.882353,1.960784,21.568627,2,0,2
-2.823529,-5.647059,4.235294,0.086275,-0.054902,-0.054902,-1.960784,-17.647059,5.882353,2,0,2
-2.823529,-7.058824,4.235294,0.133333,0.039216,-0.023529,13.72549,-17.647059,-25.490196,2,0,2
0,-5.647059,2.823529,0.117647,0.023529,0.070588,25.490196,21.568627,-25.490196,2,0,2
0,-4.235294,2.823529,0.14902,0.007843,0.321569,13.72549,29.411765,-17.647059,2,0,2
0,-4.235294,2.823529,0.196078,0.305882,0.431373,-1.960784,-1.960784,5.882353,2,0,2
1.411765,-5.647059,2.823529,0.14902,0.258824,0.368627,13.72549,-17.647059,13.72549,2,1,1
2.823529,-7.058824,4.235294,0.133333,0.290196,0.180392,37.254902,-29.411765,1.960784,2,1,1
4.235294,-7.058824,4.235294,0.117647,0.258824,-0.007843,49.019608,-17.647059,9.803922,2,1,1
5.647059,-7.058824,4.235294,0.070588,0.196078,0.086275,33.333333,-21.568627,21.568627,2,1,1
7.058824,-8.470588,5.647059,0.180392,0.070588,-0.196078,29.411765,-21.568627,13.72549,2,1,1
7.058824,-8.470588,5.647059,0.101961,0.054902,-0.258824,21.568627,-21.568627,5.882353,2,1,1
7.058824,-9.882353,5.647059,0.023529,-0.023529,-0.447059,5.882353,-21.568627,17.647059,2,1,1
7.058824,-9.882353,7.058824,0.007843,-0.039216,-0.509804,5.882353,-1.960784,9.803922,2,1,1
7.058824,-9.882353,7.058824,0.007843,-0.007843,-0.509804,1.960784,5.882353,9.803922,2,1,1
7.058824,-8.470588,7.058824,0.007843,-0.039216,-0.541176,-5.882353,5.882353,9.803922,2,1,1
5.647059,-8.470588,7.058824,-0.054902,-0.117647,-0.588235,-21.568627,17.647059,9.803922,2,1,1
4.235294,-7.058824,8.470588,-0.070588,-0.133333,-0.447059,-29.411765,41.176471,1.960784,2,1,1
2.823529,-4.235294,8.470588,-0.054902,-0.054902,-0.196078,-41.176471,41.176471,5.882353,2,1,1
1.411765,-4.235294,8.470588,-0.023529,-0.007843,0.023529,-37.254902,25.490196,9.803922,2,1,1
0,-4.235294,8.470588,-0.023529,0.023529,0.101961,-37.254902,-1.960784,13.72549,2,1,1
0,-4.235294,9.882353,0.023529,-0.039216,0.054902,-33.333333,-17.647059,25.490196,2,1,1
-2.823529,-4.235294,11.294118,0.070588,-0.180392,0.070588,-21.568627,1.960784,17.647059,2,1,1
-2.823529,-4.235294,11.294118,0.14902,-0.196078,0.243137,-21.568627,13.72549,9.803922,2,1,1
-4.235294,-2.823529,11.294118,0.196078,-0.117647,0.4,-17.647059,13.72549,1.960784,2,1,1
-4.235294,-2.823529,11.294118,0.180392,-0.101961,0.431373,-13.72549,1.960784,5.882353,2,1,1
-4.235294,-2.823529,11.294118,0.164706,-0.101961,0.415686,-9.803922,9.803922,1.960784,2,1,1
-4.235294,-2.823529,11.294118,0.196078,-0.133333,0.494118,1.960784,9.803922,-5.882353,2,1,1
-4.235294,-2.823529,11.294118,0.180392,-0.180392,0.509804,9.803922,1.960784,-13.72549,2,1,1
-2.823529,-2.823529,9.882353,0.164706,-0.164706,0.431373,29.411765,-5.882353,-21.568627,2,1,1
0,-4.235294,9.882353,0.101961,-0.196078,0.337255,41.176471,-9.803922,-25.490196,2,1,1
0,-4.235294,8.470588,0.101961,-0.305882,0.14902,41.176471,-9.803922,-25.490196,2,1,1
1.411765,-4.235294,8.470588,0.101961,-0.211765,0.117647,41.176471,-1.960784,-21.568627,2,1,1
2.823529,-4.235294,8.470588,-0.007843,-0.27451,-0.023529,33.333333,-13.72549,-13.72549,2,1,1
4.235294,-4.235294,7.058824,-0.101961,-0.211765,-0.14902,49.019608,-17.647059,-33.333333,2,1,1
4.235294,-5.647059,7.058824,-0.054902,-0.101961,-0.337255,33.333333,-13.72549,-13.72549,2,1,1
5.647059,-4.235294,5.647059,-0.007843,-0.070588,-0.384314,25.490196,5.882353,-25.490196,2,1,1
5.647059,-4.235294,5.647059,-0.039216,0.101961,-0.4,1.960784,-1.960784,-9.803922,2,1,1
5.647059,-4.235294,5.647059,-0.14902,0.054902,-0.556863,1.960784,-1.960784,-21.568627,2,0,1
7.058824,-2.823529,4.235294,-0.133333,0.14902,-0.619608,25.490196,21.568627,-29.411765,2,0,1
8.470588,0,2.823529,-0.007843,0.243137,-0.431373,21.568627,41.176471,-37.254902,2,0,1
8.470588,0,2.823529,-0.023529,0.305882,-0.27451,-13.72549,17.647059,-17.647059,2,0,1
7.058824,1.411765,2.823529,-0.023529,0.305882,-0.352941,-25.490196,13.72549,-9.803922,2,0,1
7.058824,1.411765,2.823529,-0.023529,0.321569,-0.305882,-21.568627,25.490196,-5.882353,2,0,1
7.058824,2.823529,1.411765,0.023529,0.305882,-0.211765,-17.647059,25.490196,-13.72549,2,0,1
7.058824,2.823529,1.411765,0.054902,0.321569,-0.086275,-25.490196,9.803922,-13.72549,2,0,1
5.647059,2.823529,1.411765,-0.007843,0.305882,0.007843,-29.411765,-13.72549,-5.882353,2,0,1
4.235294,1.411765,1.411765,-0.007843,0.227451,-0.117647,-45.098039,-21.568627,-1.960784,2,0,1
2.823529,1.411765,1.411765,-0.039216,0.164706,-0.007843,-45.098039,-13.72549,-9.803922,2,0,1
1.411765,1.411765,1.411765,-0.039216,0.243137,0.101961,-52.941176,-13.72549,9.803922,2,0,1
0,1.411765,1.411765,-0.007843,0.070588,0.164706,-49.019608,-1.960784,17.647059,2,0,1
-2.823529,1.411765,2.823529,0.039216,-0.023529,0.258824,-37.254902,5.882353,17.647059,2,0,1
-2.823529,1.411765,2.823529,0.086275,-0.054902,0.27451,-29.411765,-5.882353,9.803922,2,0,1
-4.235294,1.411765,2.823529,0.070588,-0.054902,0.227451,-21.568627,9.803922,1.960784,2,0,1
-4.235294,1.411765,2.823529,0.054902,-0.054902,0.321569,-21.568627,13.72549,-1.960784,2,0,1
-4.235294,1.411765,2.823529,0.117647,-0.007843,0.447059,-9.803922,13.72549,-13.72549,2,0,1
-4.235294,1.411765,2.823529,0.117647,0.054902,0.556863,-1.960784,-5.882353,-17.647059,2,0,1
-4.235294,1.411765,1.411765,0.039216,0.133333,0.415686,21.568627,-9.803922,-17.647059,2,0,1
0,1.411765,1.411765,0.14902,0.180392,0.384314,49.019608,-1.960784,-21.568627,2,0,1
1.411765,0,0,0.14902,0.180392,0.352941,60.784314,-13.72549,-21.568627,2,0,1
4.235294,0,0,0.164706,0.180392,0.305882,76.470588,-13.72549,-33.333333,2,0,1
7.058824,-2.823529,-2.823529,0.243137,0.243137,0.227451,76.470588,-33.333333,-21.568627,2,0,1
9.882353,-4.235294,-2.823529,0.290196,0.039216,-0.007843,76.470588,-33.333333,-17.647059,2,0,1
11.294118,-5.647059,-4.235294,0.368627,-0.039216,-0.133333,60.784314,-25.490196,-29.411765,2,0,1
12.705882,-7.058824,-5.647059,0.368627,-0.039216,-0.164706,37.254902,-29.411765,-45.098039,2,0,1
12.705882,-8.470588,-7.058824,0.337255,-0.039216,-0.258824,13.72549,-37.254902,-52.941176,2,0,1
12.705882,-9.882353,-8.470588,0.227451,-0.070588,-0.321569,-5.882353,-37.254902,-60.784314,2,0,1
11.294118,-11.294118,-11.294118,0.101961,-0.054902,-0.415686,-17.647059,-37.254902,-68.627451,2,0,1
9.882353,-11.294118,-12.705882,0.039216,0.039216,-0.478431,-21.568627,-21.568627,-64.705882,2,0,1
9.882353,-11.294118,-15.529412,-0.007843,0.14902,-0.431373,-21.568627,-13.72549,-60.784314,2,0,1
8.470588,-11.294118,-16.941176,-0.070588,0.117647,-0.494118,-45.098039,-21.568627,-49.019608,2,0,1
7.058824,-11.294118,-18.352941,-0.14902,0.180392,-0.462745,-49.019608,-13.72549,-49.019608,2,0,1
5.647059,-11.294118,-19.764706,-0.14902,0.211765,-0.352941,-49.019608,-13.72549,-37.254902,2,0,1
4.235294,-11.294118,-19.764706,-0.133333,0.070588,-0.447059,-45.098039,-5.882353,-25.490196,2,0,1
2.823529,-11.294118,-21.176471,-0.164706,-0.023529,-0.337255,-37.254902,9.803922,-25.490196,2,0,1
1.411765,-9.882353,-21.176471,-0.14902,-0.117647,-0.180392,-49.019608,21.568627,-17.647059,2,0,1
0,-8.470588,-22.588235,-0.133333,-0.101961,-0.039216,-41.176471,33.333333,-21.568627,2,0,1
-2.823529,-7.058824,-22.588235,-0.14902,-0.054902,0.14902,-56.862745,33.333333,-13.72549,2,0,1
-4.235294,-5.647059,-22.588235,-0.14902,0.070588,0.243137,-45.098039,25.490196,-5.882353,2,0,1
-5.647059,-4.235294,-22.588235,-0.14902,0.039216,0.243137,-33.333333,25.490196,1.960784,2,0,1
-5.647059,-2.823529,-22.588235,-0.117647,-0.023529,0.211765,-13.72549,33.333333,-1.960784,2,0,1
-5.647059,0,-22.588235,-0.117647,0.023529,0.258824,-13.72549,33.333333,1.960784,2,0,1
-5.647059,0,-22.588235,-0.101961,-0.054902,0.258824,-9.803922,29.411765,-1.960784,2,0,1
-7.058824,1.411765,-22.588235,-0.117647,-0.023529,0.352941,-13.72549,29.411765,-1.960784,2,0,1
-5.647059,2.823529,-22.588235,-0.133333,0.039216,0.572549,-1.960784,17.647059,-5.882353,2,0,1
-5.647059,2.823529,-22.588235,-0.243137,0.070588,0.603922,5.882353,-5.882353,5.882353,2,0,1
-5.647059,2.823529,-22.588235,-0.305882,0.039216,0.556863,25.490196,-9.803922,9.803922,2,0,0
-2.823529,1.411765,-21.176471,-0.290196,0.007843,0.588235,45.098039,-21.568627,17.647059,2,0,0
0,1.411765,-21.176471,-0.290196,0.023529,0.556863,60.784314,-37.254902,17.647059,2,0,0
2.823529,-2.823529,-19.764706,-0.321569,0.054902,0.431373,60.784314,-56.862745,29.411765,2,0,0
4.235294,-4.235294,-18.352941,-0.368627,0.086275,0.086275,60.784314,-64.705882,45.098039,2,0,0
7.058824,-4.235294,-16.941176,-0.305882,0.054902,-0.164706,72.54902,-45.098039,49.019608,2,0,0
8.470588,-5.647059,-14.117647,-0.258824,0.054902,-0.4,68.627451,-29.411765,64.705882,2,0,0
11.294118,-5.647059,-12.705882,-0.054902,-0.070588,-0.494118,68.627451,-5.882353,60.784314,2,0,0
11.294118,-5.647059,-9.882353,-0.007843,0.023529,-0.541176,37.254902,-5.882353,64.705882,2,0,0
12.705882,-5.647059,-8.470588,0.070588,-0.054902,-0.619608,21.568627,1.960784,64.705882,2,0,0
12.705882,-4.235294,-7.058824,0.133333,0.007843,-0.556863,29.411765,17.647059,45.098039,2,0,0
14.117647,-4.235294,-5.647059,0.243137,0.007843,-0.494118,17.647059,17.647059,45.098039,2,0,0
12.705882,-4.235294,-4.235294,0.305882,-0.070588,-0.494118,-5.882353,13.72549,37.254902,2,0,0
11.294118,-5.647059,-2.823529,0.321569,-0.023529,-0.556863,-25.490196,9.803922,29.411765,2,0,0
11.294118,-4.235294,0,0.27451,0.023529,-0.447059,-37.254902,29.411765,21.568627,2,0,0
8.470588,-2.823529,0,0.243137,0.133333,-0.227451,-49.019608,37.254902,21.568627,2,0,0
7.058824,-2.823529,1.411765,0.243137,0.243137,0.039216,-60.784314,29.411765,25.490196,2,0,0
5.647059,-2.823529,2.823529,0.243137,0.14902,0.086275,-56.862745,13.72549,33.333333,2,0,0
4.235294,-2.823529,2.823529,0.196078,0.101961,0.117647,-49.019608,13.72549,25.490196,2,0,0
2.823529,0,4.235294,0.196078,0.180392,0.196078,-52.941176,13.72549,29.411765,2,0,0
1.411765,0,5.647059,0.180392,0.14902,0.227451,-29.411765,9.803922,29.411765,2,0,0
1.411765,0,5.647059,0.14902,0.133333,0.227451,-25.490196,13.72549,29.411765,2,0,0
0,0,7.058824,0.101961,0.007843,0.14902,-33.333333,17.647059,33.333333,2,0,0
-2.823529,1.411765,8.470588,0.101961,0.054902,0.368627,-29.411765,25.490196,17.647059,2,0,0
-2.823529,1.411765,8.470588,0.101961,0.086275,0.698039,-29.411765,9.803922,5.882353,2,0,0
-4.235294,0,8.470588,0.007843,0.352941,0.94902,-52.941176,-45.098039,21.568627,2,0,0
-5.647059,-4.235294,11.294118,-0.070588,0.478431,0.870588,-52.941176,-100,52.941176,2,0,0
-7.058824,-8.470588,12.705882,-0.086275,0.321569,0.556863,-33.333333,-115.686275,72.54902,2,0,0
-7.058824,-11.294118,15.529412,-0.117647,0.290196,0.243137,-21.568627,-115.686275,80.392157,2,0,0
-7.058824,-14.117647,19.764706,-0.054902,0.14902,-0.007843,-21.568627,-103.921569,92.156863,2,0,0
-7.058824,-16.941176,22.588235,0.007843,-0.007843,-0.164706,-21.568627,-100,84.313725,2,0,0
-8.470588,-19.764706,25.411765,0.007843,0.054902,-0.415686,-25.490196,-88.235294,100,2,0,0
-9.882353,-21.176471,29.647059,-0.023529,-0.196078,-0.588235,-25.490196,-52.941176,107.843137,2,0,0
-9.882353,-21.176471,31.058824,0.101961,-0.337255,-0.494118,-25.490196,-33.333333,76.470588,2,0,0
-12.705882,-22.588235,33.882353,0.070588,-0.27451,-0.431373,-64.705882,-45.098039,68.627451,2,0,0
-15.529412,-24,36.705882,-0.023529,-0.180392,-0.52549,-96.078431,-45.098039,84.313725,2,0,0
-18.352941,-24,39.529412,0.039216,-0.290196,-0.603922,-64.705882,-29.411765,84.313725,2,0,0
-19.764706,-25.411765,42.352941,0.007843,-0.243137,-0.556863,-21.568627,-21.568627,76.470588,2,0,0
-19.764706,-25.411765,45.176471,0.023529,-0.384314,-0.588235,-9.803922,-17.647059,92.156863,2,0,0
-21.176471,-24,48,0.054902,-0.541176,-0.65098,-1.960784,-5.882353,92.156863,2,0,0
-22.588235,-24,50.823529,0.070588,-0.588235,-0.619608,-17.647059,1.960784,84.313725,2,0,0
-24,-24,53.647059,0.117647,-0.619608,-0.494118,-25.490196,9.803922,76.470588,2,0,0
-25.411765,-22.588235,56.470588,0.101961,-0.619608,-0.384314,-33.333333,13.72549,76.470588,2,0,0
-26.823529,-21.176471,59.294118,0.164706,-0.886275,-0.258824,-37.254902,17.647059,64.705882,2,0,0
-29.647059,-21.176471,60.705882,0.211765,-0.933333,-0.133333,-64.705882,-1.960784,52.941176,2,0,0
-31.058824,-21.176471,62.117647,0.227451,-0.94902,-0.133333,-68.627451,-9.803922,41.176471,2,0,0
-33.882353,-22.588235,63.529412,0.258824,-0.94902,-0.054902,-52.941176,-13.72549,29.411765,2,0,0
-35.294118,-22.588235,63.529412,0.290196,-0.996078,-0.070588,-29.411765,-9.803922,17.647059,2,0,0
-35.294118,-22.588235,63.529412,0.352941,-1.058824,0.023529,-1.960784,-5.882353,-1.960784,2,0,0
-35.294118,-22.588235,63.529412,0.352941,-1.027451,0.023529,-5.882353,-9.803922,-9.803922,2,0,0
-35.294118,-22.588235,62.117647,0.321569,-0.996078,-0.086275,9.803922,-13.72549,-29.411765,2,0,0
-33.882353,-22.588235,60.705882,0.290196,-0.964706,-0.180392,29.411765,-9.803922,-45.098039,2,0,0
-32.470588,-22.588235,59.294118,0.243137,-1.011765,-0.352941,52.941176,1.960784,-72.54902,2,0,0
-31.058824,-21.176471,55.058824,0.227451,-0.94902,-0.447059,80.392157,13.72549,-107.843137,2,0,0
-28.235294,-21.176471,50.823529,0.211765,-0.807843,-0.478431,100,17.647059,-139.215686,2,0,0
-25.411765,-19.764706,46.588235,0.196078,-0.666667,-0.52549,92.156863,25.490196,-143.137255,2,0,0
-22.588235,-18.352941,40.941176,0.196078,-0.556863,-0.541176,84.313725,25.490196,-158.823529,2,0,0
-21.176471,-16.941176,35.294118,0.211765,-0.431373,-0.792157,84.313725,60.784314,-174.509804,2,0,0
-16.941176,-14.117647,28.235294,-0.007843,-0.290196,-0.572549,115.686275,84.313725,-194.117647,2,0,0
-14.117647,-11.294118,22.588235,0.070588,0.070588,-0.305882,92.156863,84.313725,-178.431373,2,0,0
-12.705882,-8.470588,19.764706,0.101961,0.086275,-0.164706,41.176471,56.862745,-111.764706,2,0,0
-12.705882,-8.470588,16.941176,0.101961,-0.070588,-0.258824,-9.803922,17.647059,-72.54902,2,0,0
-12.705882,-7.058824,14.117647,-0.054902,0.023529,-0.211765,-1.960784,33.333333,-100,2,0,0
-11.294118,-5.647059,11.294118,0.023529,0.070588,-0.14902,-5.882353,33.333333,-84.313725,2,0,0
-12.705882,-4.235294,8.470588,-0.007843,0.086275,-0.039216,-13.72549,29.411765,-68.627451,2,0,0
-12.705882,-4.235294,7.058824,-0.023529,0.054902,-0.070588,-17.647059,29.411765,-49.019608,2,0,0
-12.705882,-2.823529,5.647059,-0.039216,0.007843,-0.023529,-17.647059,41.176471,-49.019608,2,0,0
-12.705882,0,4.235294,-0.023529,0.101961,0.070588,-17.647059,45.098039,-37.254902,2,0,0
-12.705882,1.411765,2.823529,-0.054902,0.054902,0.133333,-1.960784,41.176471,-37.254902,2,0,0
-11.294118,2.823529,2.823529,-0.101961,0.117647,0.133333,9.803922,37.254902,-33.333333,2,0,0
-11.294118,4.235294,1.411765,-0.101961,0.101961,0.14902,13.72549,33.333333,-17.647059,2,0,0
-9.882353,5.647059,1.411765,-0.070588,0.070588,0.101961,25.490196,29.411765,-17.647059,2,0,0
-9.882353,7.058824,1.411765,-0.070588,0.007843,0.054902,9.803922,21.568627,-9.803922,2,0,0
-8.470588,7.058824,1.411765,-0.054902,0.086275,0.054902,-1.960784,9.803922,-5.882353,2,0,0
-8.470588,7.058824,1.411765,-0.086275,0.086275,0.007843,5.882353,9.803922,-1.960784,2,0,0
-8.470588,5.647059,1.411765,-0.211765,-0.352941,0.4,9.803922,-45.098039,29.411765,2,0,0
-8.470588,5.647059,2.823529,0.054902,-0.086275,-0.384314,-5.882353,-5.882353,1.960784,2,0,0
-9.882353,4.235294,2.823529,-0.086275,0.007843,0.023529,-52.941176,-21.568627,29.411765,2,0,0
-9.882353,4.235294,2.823529,0.086275,-0.054902,-0.070588,-1.960784,5.882353,1.960784,2,0,0
-9.882353,4.235294,2.823529,-0.086275,-0.054902,0.211765,1.960784,-1.960784,1.960784,2,0,0
-9.882353,4.235294,2.823529,0.007843,-0.023529,-0.023529,1.960784,5.882353,1.960784,2,1,0
-9.882353,4.235294,2.823529,-0.007843,-0.023529,0.039216,-1.960784,5.882353,-1.960784,2,1,0
-9.882353,4.235294,2.823529,-0.054902,-0.054902,-0.007843,-1.960784,-5.882353,1.960784,2,1,0
-9.882353,4.235294,2.823529,-0.007843,-0.039216,-0.007843,-1.960784,-5.882353,-1.960784,2,1,0
-9.882353,4.235294,2.823529,-0.070588,-0.14902,-0.086275,-1.960784,-1.960784,-13.72549,2,1,0
-8.470588,4.235294,1.411765,-0.007843,-0.133333,0.243137,29.411765,9.803922,-49.019608,2,1,0
-7.058824,5.647059,0,0.337255,0.478431,0.760784,29.411765,25.490196,-29.411765,2,1,0
-5.647059,4.235294,0,0.227451,-0.070588,0.94902,25.490196,-29.411765,1.960784,2,1,0
-4.235294,2.823529,0,0.27451,0.007843,0.854902,37.254902,-41.176471,-21.568627,2,1,0
-2.823529,1.411765,-2.823529,0.243137,0.133333,0.462745,37.254902,-49.019608,-25.490196,2,1,0
0,0,-2.823529,0.227451,0.27451,0.101961,60.784314,-25.490196,-29.411765,2,1,0
2.823529,0,-4.235294,0.196078,0.211765,-0.258824,68.627451,9.803922,-52.941176,2,1,0
5.647059,0,-7.058824,0.27451,0.164706,-0.27451,88.235294,25.490196,-60.784314,2,1,0
8.470588,0,-8.470588,0.196078,0.180392,-0.431373,64.705882,1.960784,-52.941176,2,1,0
9.882353,0,-9.882353,0.117647,0.086275,-0.682353,45.098039,1.960784,-52.941176,2,1,0
11.294118,0,-11.294118,-0.007843,0.180392,-0.635294,1.960784,-1.960784,-37.254902,2,1,0
9.882353,0,-11.294118,0.023529,0.039216,-0.698039,-29.411765,-5.882353,-25.490196,2,0,0
8.470588,-2.823529,-12.705882,-0.023529,0.117647,-0.635294,-37.254902,-9.803922,-25.490196,2,0,0
5.647059,0,-12.705882,-0.133333,-0.023529,-0.713725,-72.54902,-13.72549,-13.72549,2,0,0
4.235294,0,-14.117647,-0.101961,0.023529,-0.635294,-80.392157,-1.960784,-9.803922,2,0,0
1.411765,0,-14.117647,-0.14902,0.101961,-0.4,-76.470588,-5.882353,-5.882353,2,0,0
0,0,-14.117647,-0.211765,-0.086275,-0.368627,-60.784314,-5.882353,-1.960784,2,0,0
-5.647059,0,-12.705882,-0.211765,-0.133333,-0.352941,-88.235294,-25.490196,13.72549,2,0,0
-8.470588,0,-12.705882,-0.101961,-0.14902,-0.415686,-88.235294,1.960784,5.882353,2,0,0
-9.882353,0,-12.705882,-0.164706,-0.133333,0.086275,-60.784314,1.960784,9.803922,2,0,0
-11.294118,0,-11.294118,-0.164706,-0.196078,0.023529,-45.098039,-1.960784,9.803922,2,0,0
-12.705882,1.411765,-11.294118,-0.133333,-0.305882,0.258824,-33.333333,33.333333,5.882353,2,0,0
-12.705882,1.411765,-11.294118,-0.086275,-0.133333,0.572549,-17.647059,17.647059,5.882353,2,0,0
-12.705882,1.411765,-11.294118,-0.086275,-0.180392,0.494118,-9.803922,-9.803922,1.960784,2,0,0
-12.705882,1.411765,-11.294118,-0.086275,-0.164706,0.337255,-13.72549,-1.960784,13.72549,2,0,0
-12.705882,1.411765,-11.294118,-0.039216,-0.164706,0.258824,5.882353,1.960784,1.960784,2,0,0
-9.882353,4.235294,-11.294118,0.164706,-0.305882,0.745098,92.156863,49.019608,-17.647059,2,0,0
-9.882353,2.823529,-9.882353,-0.164706,-0.227451,0.603922,-17.647059,-17.647059,33.333333,2,0,0
-11.294118,2.823529,-9.882353,-0.007843,-0.101961,-0.368627,-9.803922,-29.411765,1.960784,2,0,0
-9.882353,2.823529,-9.882353,-0.14902,-0.039216,-0.14902,9.803922,21.568627,-5.882353,2,0,0
-8.470588,4.235294,-9.882353,-0.086275,-0.054902,-0.133333,29.411765,45.098039,-13.72549,2,0,0
-8.470588,5.647059,-9.882353,-0.007843,-0.023529,0.180392,9.803922,13.72549,-1.960784,2,0,0
-8.470588,4.235294,-9.882353,-0.039216,0.039216,0.133333,-17.647059,-25.490196,13.72549,2,0,0
-9.882353,2.823529,-9.882353,-0.086275,-0.180392,-0.164706,-21.568627,-29.411765,17.647059,2,0,0
-9.882353,2.823529,-8.470588,-0.023529,-0.117647,-0.211765,-1.960784,1.960784,1.960784,2,0,0
-8.470588,2.823529,-9.882353,-0.164706,-0.101961,-0.305882,45.098039,-29.411765,-13.72549,2,0,0
-7.058824,2.823529,-9.882353,0.070588,-0.117647,-0.117647,13.72549,-1.960784,5.882353,2,0,0
-8.470588,1.411765,-9.882353,0.054902,0.039216,0.101961,-13.72549,-13.72549,-1.960784,2,0,0
-8.470588,1.411765,-9.882353,-0.007843,-0.070588,-0.039216,-5.882353,-5.882353,-1.960784,2,0,0
-7.058824,1.411765,-9.882353,-0.023529,-0.039216,-0.023529,-1.960784,-1.960784,-5.882353,2,0,0
-7.058824,1.411765,-9.882353,-0.023529,-0.039216,-0.007843,-1.960784,-1.960784,-5.882353,2,0,0
-7.058824,1.411765,-9.882353,-0.023529,-0.039216,-0.007843,-1.960784,-1.960784,-1.960784,2,0,0
-7.058824,1.411765,-9.882353,-0.023529,-0.023529,-0.007843,-1.960784,1.960784,-1.960784,2,0,0
-7.058824,1.411765,-9.882353,-0.054902,-0.070588,-0.023529,1.960784,5.882353,-5.882353,2,1,0
-7.058824,2.823529,-9.882353,0.054902,0.007843,0.196078,-5.882353,9.803922,-17.647059,2,1,0
-7.058824,1.411765,-9.882353,0.054902,-0.117647,0.52549,-5.882353,-9.803922,-13.72549,2,1,0
-7.058824,1.411765,-11.294118,0.007843,0.007843,0.666667,13.72549,-9.803922,-13.72549,2,1,0
-5.647059,0,-11.294118,0.086275,-0.039216,0.713725,37.254902,-25.490196,-17.647059,2,1,0
-4.235294,-2.823529,-11.294118,0.086275,-0.101961,0.619608,49.019608,-56.862745,-13.72549,2,1,0
-2.823529,-4.235294,-12.705882,0.086275,-0.14902,0.4,45.098039,-64.705882,-17.647059,2,1,0
0,-7.058824,-12.705882,0.101961,-0.211765,0.243137,52.941176,-64.705882,-25.490196,2,1,0
1.411765,-8.470588,-14.117647,0.101961,-0.337255,-0.023529,49.019608,-60.784314,-33.333333,2,1,0
2.823529,-9.882353,-15.529412,0.117647,-0.4,-0.117647,52.941176,-41.176471,-49.019608,2,1,0
4.235294,-11.294118,-18.352941,0.086275,-0.384314,-0.196078,68.627451,-29.411765,-72.54902,2,1,0
5.647059,-11.294118,-21.176471,0.007843,-0.494118,-0.290196,56.862745,-29.411765,-80.392157,2,1,0
5.647059,-12.705882,-24,0.007843,-0.321569,-0.478431,29.411765,-45.098039,-100,2,1,0
5.647059,-14.117647,-26.823529,-0.117647,-0.180392,-0.823529,-5.882353,-49.019608,-103.921569,2,1,0
8.470588,-11.294118,-31.058824,-0.180392,0.007843,-1.058824,-25.490196,-17.647059,-111.764706,2,1,0
7.058824,-9.882353,-35.294118,-0.27451,0.243137,-0.886275,-29.411765,5.882353,-115.686275,2,1,0
7.058824,-9.882353,-38.117647,-0.211765,0.588235,-0.666667,-37.254902,-9.803922,-96.078431,2,0,0
7.058824,-9.882353,-39.529412,-0.164706,0.588235,-0.854902,-41.176471,-5.882353,-56.862745,2,0,0
7.058824,-8.470588,-40.941176,-0.227451,0.603922,-0.792157,-45.098039,9.803922,-25.490196,2,0,0
7.058824,-7.058824,-40.941176,-0.243137,0.713725,-0.4,-41.176471,25.490196,5.882353,2,0,0
5.647059,-5.647059,-39.529412,-0.101961,0.556863,-0.290196,-41.176471,37.254902,37.254902,2,0,0
4.235294,-4.235294,-38.117647,-0.007843,0.290196,-0.023529,-52.941176,56.862745,41.176471,2,0,0
2.823529,0,-36.705882,0.086275,0.211765,0.603922,-64.705882,60.784314,29.411765,2,0,0
0,0,-35.294118,0.101961,0.14902,0.854902,-76.470588,29.411765,41.176471,2,0,0
-2.823529,0,-33.882353,0.101961,0.27451,0.886275,-56.862745,-1.960784,33.333333,2,0,0
-4.235294,-2.823529,-32.470588,0.101961,0.133333,0.509804,-56.862745,-37.254902,45.098039,2,0,0
-5.647059,-2.823529,-31.058824,0.086275,0.023529,0.117647,-41.176471,-25.490196,41.176471,2,0,0
-5.647059,-2.823529,-29.647059,0.101961,0.023529,0.070588,-13.72549,-1.960784,21.568627,2,0,0
-5.647059,-2.823529,-29.647059,0.117647,0.054902,0.14902,-5.882353,-1.960784,17.647059,2,0,0
-5.647059,-4.235294,-29.647059,0.054902,0.101961,0.211765,21.568627,-5.882353,5.882353,2,0,0
-4.235294,-4.235294,-29.647059,0.101961,0.023529,0.164706,13.72549,-13.72549,9.803922,2,0,0
-4.235294,-4.235294,-28.235294,0.054902,0.023529,0.007843,-1.960784,-13.72549,9.803922,2,0,0
-4.235294,-4.235294,-28.235294,0.039216,0.054902,-0.070588,-1.960784,-9.803922,9.803922,2,0,0
-4.235294,-4.235294,-28.235294,0.070588,-0.086275,-0.054902,1.960784,-1.960784,5.882353,2,0,0
-4.235294,-4.235294,-28.235294,0.039216,-0.023529,0.007843,1.960784,5.882353,-1.960784,2,0,0
-4.235294,-4.235294,-28.235294,0.023529,-0.007843,0.007843,-1.960784,5.882353,-5.882353,2,0,0
-4.235294,-4.235294,-28.235294,0.054902,0.023529,0.007843,-1.960784,1.960784,-5.882353,2,0,0
-4.235294,-4.235294,-28.235294,0.039216,0.007843,0.054902,-9.803922,-9.803922,-5.882353,2,0,0
-4.235294,-5.647059,-28.235294,0.039216,0.007843,0.196078,-17.647059,-17.647059,-13.72549,2,0,0
-4.235294,-5.647059,-29.647059,-0.023529,0.164706,0.556863,-13.72549,-29.411765,-25.490196,2,0,0
-5.647059,-8.470588,-29.647059,-0.164706,0.52549,0.870588,-21.568627,-72.54902,1.960784,2,0,0
-4.235294,-9.882353,-28.235294,-0.243137,0.52549,0.556863,13.72549,-88.235294,37.254902,2,0,0
1.411765,-11.294118,-26.823529,-0.243137,0.478431,0.211765,96.078431,-37.254902,49.019608,2,0,0
7.058824,-9.882353,-24,-0.180392,0.352941,-0.023529,166.666667,33.333333,56.862745,2,0,0
11.294118,-7.058824,-21.176471,-0.14902,0.352941,-0.023529,150.980392,64.705882,96.078431,2,0,0
15.529412,-4.235294,-16.941176,-0.14902,0.337255,-0.133333,111.764706,68.627451,123.529412,2,0,0
18.352941,0,-11.294118,-0.258824,0.368627,-0.337255,80.392157,64.705882,158.823529,2,0,0
21.176471,1.411765,-5.647059,-0.258824,0.337255,-0.243137,88.235294,72.54902,182.352941,2,0,0
22.588235,2.823529,4.235294,-0.27451,0.227451,-0.243137,21.568627,29.411765,260.784314,2,0,0
18.352941,4.235294,16.941176,-0.509804,0.023529,-0.509804,-103.921569,-1.960784,370.588235,2,0,0
14.117647,4.235294,29.647059,-0.447059,-0.603922,-0.494118,-100,-1.960784,370.588235,2,0,0
12.705882,5.647059,38.117647,-0.352941,-0.52549,-0.478431,-17.647059,1.960784,268.627451,2,0,0
9.882353,5.647059,46.588235,-0.305882,-0.462745,-0.478431,-60.784314,21.568627,249.019608,2,0,0
5.647059,7.058824,53.647059,-0.180392,-0.65098,-0.368627,-68.627451,33.333333,229.411765,2,0,0
4.235294,8.470588,59.294118,0.117647,-0.713725,-0.101961,-33.333333,29.411765,147.058824,2,0,0
2.823529,8.470588,63.529412,-0.007843,-0.337255,-0.101961,-49.019608,-1.960784,119.607843,2,0,0
0,7.058824,66.352941,-0.054902,-0.290196,-0.290196,-52.941176,-9.803922,111.764706,2,0,0
-2.823529,8.470588,70.588235,-0.023529,-0.321569,-0.258824,-33.333333,25.490196,107.843137,2,0,0
-4.235294,8.470588,73.411765,0.054902,-0.478431,-0.117647,-41.176471,29.411765,92.156863,2,0,0
-7.058824,9.882353,76.235294,-0.023529,-0.431373,-0.117647,-49.019608,33.333333,88.235294,2,0,0
-8.470588,11.294118,79.058824,0.023529,-0.65098,0.086275,-29.411765,41.176471,56.862745,2,0,0
-8.470588,11.294118,79.058824,-0.039216,-0.494118,0.305882,-33.333333,13.72549,37.254902,2,0,0
-11.294118,11.294118,80.470588,-0.023529,-0.541176,0.14902,-41.176471,-5.882353,33.333333,2,0,0
-11.294118,11.294118,81.882353,0.007843,-0.431373,0.007843,-29.411765,-5.882353,25.490196,2,0,0
-8.470588,12.705882,81.882353,0.509804,-0.211765,0.964706,107.843137,88.235294,-5.882353,2,0,0
-9.882353,8.470588,81.882353,0.023529,-0.4,-0.086275,-25.490196,-123.529412,5.882353,2,0,0
-11.294118,8.470588,81.882353,0.180392,-0.431373,-0.368627,-37.254902,9.803922,-17.647059,2,0,0
-9.882353,8.470588,80.470588,0.101961,-0.164706,0.133333,17.647059,13.72549,-17.647059,2,0,0
-9.882353,8.470588,80.470588,0.101961,-0.494118,0.258824,33.333333,-1.960784,-29.411765,2,0,0
-9.882353,7.058824,79.058824,0.117647,-0.635294,0.290196,1.960784,-25.490196,-33.333333,2,0,0
-8.470588,7.058824,76.235294,0.070588,-0.556863,0.258824,25.490196,-29.411765,-64.705882,2,0,0
-8.470588,5.647059,73.411765,0.101961,-0.556863,0.227451,49.019608,-37.254902,-84.313725,2,0,0
-7.058824,2.823529,70.588235,0.086275,-0.588235,0.196078,45.098039,-49.019608,-100,2,0,0
-7.058824,1.411765,67.764706,0.070588,-0.494118,-0.007843,9.803922,-56.862745,-92.156863,2,0,0
-7.058824,0,63.529412,0.117647,-0.509804,-0.101961,-1.960784,-45.098039,-119.607843,2,0,0
-7.058824,-2.823529,59.294118,0.101961,-0.305882,-0.101961,13.72549,-29.411765,-139.215686,2,0,0
-5.647059,-2.823529,53.647059,0.133333,-0.337255,-0.164706,37.254902,-29.411765,-174.509804,2,0,0
-5.647059,-4.235294,48,0.101961,-0.321569,-0.243137,29.411765,-33.333333,-174.509804,2,0,0
-5.647059,-5.647059,40.941176,0.164706,-0.4,-0.4,1.960784,-25.490196,-194.117647,2,0,0
-5.647059,-5.647059,33.882353,0.086275,-0.290196,-0.384314,-1.960784,-5.882353,-237.254902,2,0,0
-5.647059,-5.647059,25.411765,0.086275,-0.039216,-0.305882,-1.960784,-13.72549,-252.941176,2,1,0
-7.058824,-7.058824,18.352941,0.101961,-0.101961,-0.368627,-29.411765,-13.72549,-213.72549,2,1,0
-9.882353,-7.058824,11.294118,0.117647,-0.196078,-0.368627,-64.705882,-1.960784,-213.72549,2,1,0
-11.294118,-7.058824,2.823529,0.086275,-0.086275,-0.384314,-76.470588,9.803922,-245.098039,2,1,0
-14.117647,-5.647059,-7.058824,-0.054902,0.007843,-0.415686,-60.784314,17.647059,-260.784314,2,1,0
-14.117647,-5.647059,-14.117647,-0.180392,0.133333,-0.368627,-37.254902,5.882353,-245.098039,2,1,0
-14.117647,-4.235294,-21.176471,-0.133333,0.196078,-0.478431,-17.647059,17.647059,-209.803922,2,1,0
-14.117647,-2.823529,-26.823529,-0.039216,0.27451,-0.27451,-41.176471,49.019608,-150.980392,2,1,0
-15.529412,0,-29.647059,0.023529,0.086275,-0.101961,-45.098039,29.411765,-107.843137,2,1,0
-16.941176,0,-32.470588,-0.023529,-0.007843,-0.054902,-64.705882,5.882353,-100,2,1,0
-19.764706,0,-35.294118,-0.070588,-0.070588,-0.039216,-68.627451,-21.568627,-84.313725,2,1,0
-21.176471,0,-38.117647,-0.070588,-0.133333,-0.196078,-49.019608,-5.882353,-64.705882,2,1,0
-21.176471,1.411765,-40.941176,-0.117647,-0.117647,-0.196078,-25.490196,41.176471,-96.078431,2,1,0
-21.176471,4.235294,-43.764706,-0.211765,-0.101961,-0.101961,-9.803922,84.313725,-103.921569,2,1,0
-21.176471,7.058824,-48,-0.305882,0.086275,0.133333,-9.803922,103.921569,-100,2,1,0
-21.176471,11.294118,-49.411765,-0.27451,0.117647,0.352941,-21.568627,96.078431,-76.470588,2,1,0
-21.176471,12.705882,-50.823529,-0.352941,0.180392,0.415686,-33.333333,56.862745,-41.176471,2,0,0
-22.588235,14.117647,-52.235294,-0.352941,0.039216,0.4,-37.254902,17.647059,-21.568627,2,0,0
-22.588235,14.117647,-52.235294,-0.321569,0.101961,0.352941,-13.72549,13.72549,-17.647059,2,0,0
-22.588235,14.117647,-52.235294,-0.243137,0.101961,0.462745,-9.803922,9.803922,-13.72549,2,0,0
-22.588235,14.117647,-52.235294,-0.227451,0.101961,0.384314,-13.72549,-17.647059,1.960784,2,0,0
-21.176471,12.705882,-52.235294,-0.196078,0.070588,0.27451,1.960784,-17.647059,-5.882353,2,0,0
-21.176471,12.705882,-52.235294,-0.164706,0.054902,0.164706,13.72549,-13.72549,-5.882353,2,0,0
-19.764706,12.705882,-52.235294,-0.070588,0.023529,0.133333,17.647059,-9.803922,-1.960784,2,0,0
-18.352941,11.294118,-52.235294,-0.054902,0.007843,0.086275,17.647059,-13.72549,-5.882353,2,0,0
-18.352941,11.294118,-52.235294,-0.023529,0.007843,-0.023529,9.803922,-21.568627,1.960784,2,0,0
-16.941176,9.882353,-52.235294,-0.039216,-0.023529,-0.196078,9.803922,-17.647059,-5.882353,2,0,0
-16.941176,9.882353,-53.647059,-0.054902,0.007843,-0.258824,5.882353,-9.803922,-5.882353,2,0,0
-15.529412,9.882353,-53.647059,-0.039216,0.023529,-0.27451,1.960784,-5.882353,-1.960784,2,0,0
-15.529412,8.470588,-53.647059,-0.023529,-0.023529,-0.321569,-13.72549,-5.882353,1.960784,2,0,0
-15.529412,8.470588,-53.647059,-0.039216,-0.007843,-0.305882,-13.72549,-9.803922,-1.960784,2,0,0
-16.941176,8.470588,-53.647059,-0.086275,-0.023529,-0.305882,-17.647059,-17.647059,-1.960784,2,0,0
-16.941176,7.058824,-53.647059,-0.023529,-0.039216,-0.117647,-21.568627,-5.882353,-5.882353,2,1,0
-16.941176,7.058824,-53.647059,-0.007843,-0.039216,0.133333,-13.72549,-9.803922,-5.882353,2,1,0
-16.941176,7.058824,-53.647059,-0.023529,0.039216,0.415686,-13.72549,-5.882353,-13.72549,2,1,0
-16.941176,7.058824,-53.647059,-0.133333,0.243137,0.619608,-9.803922,-13.72549,-5.882353,2,1,0
-16.941176,5.647059,-53.647059,-0.227451,0.243137,0.635294,1.960784,-29.411765,5.882353,2,1,0
-14.117647,5.647059,-53.647059,-0.337255,0.27451,0.478431,33.333333,5.882353,-1.960784,2,1,0
-12.705882,7.058824,-53.647059,-0.415686,0.431373,0.572549,60.784314,25.490196,13.72549,2,1,0
-8.470588,8.470588,-50.823529,-0.368627,0.494118,0.52549,72.54902,17.647059,49.019608,2,1,0
-5.647059,7.058824,-49.411765,-0.352941,0.447059,0.352941,88.235294,-9.803922,72.54902,2,1,0
0,7.058824,-45.176471,-0.227451,0.431373,0.039216,92.156863,-33.333333,123.529412,2,1,0
2.823529,5.647059,-38.117647,-0.133333,0.211765,-0.180392,76.470588,-52.941176,190.196078,2,1,0
4.235294,2.823529,-29.647059,-0.196078,0.290196,-0.290196,49.019608,-84.313725,264.705882,2,1,0
4.235294,0,-22.588235,-0.007843,0.070588,-0.509804,1.960784,-76.470588,213.72549,2,1,0
5.647059,-2.823529,-15.529412,-0.14902,0.196078,-0.807843,33.333333,-60.784314,229.411765,2,1,0
7.058824,-2.823529,-5.647059,-0.164706,-0.164706,-0.666667,29.411765,-1.960784,288.235294,2,1,0
7.058824,0,4.235294,0.007843,-0.431373,-0.384314,37.254902,13.72549,229.411765,2,1,0
8.470588,-2.823529,9.882353,0.023529,-0.243137,-0.509804,60.784314,-9.803922,186.27451,2,0,0
9.882353,0,16.941176,-0.101961,-0.14902,-0.572549,45.098039,25.490196,201.960784,2,0,0
8.470588,1.411765,21.176471,0.117647,-0.431373,-0.384314,13.72549,41.176471,150.980392,2,0,0
9.882353,4.235294,26.823529,-0.023529,-0.133333,-0.321569,21.568627,64.705882,135.294118,2,0,0
8.470588,5.647059,29.647059,0.070588,-0.290196,-0.227451,1.960784,60.784314,103.921569,2,0,0
7.058824,7.058824,32.470588,0.023529,-0.227451,-0.14902,-29.411765,52.941176,92.156863,2,0,0
5.647059,8.470588,35.294118,0.101961,-0.133333,-0.023529,-56.862745,45.098039,76.470588,2,0,0
4.235294,9.882353,38.117647,-0.023529,-0.070588,-0.023529,-49.019608,60.784314,92.156863,2,0,0
2.823529,12.705882,39.529412,0.101961,-0.196078,0.101961,-5.882353,76.470588,52.941176,2,0,0
2.823529,15.529412,40.941176,0.164706,-0.14902,0.478431,-25.490196,84.313725,41.176471,2,0,0
1.411765,15.529412,43.764706,0.164706,-0.023529,0.729412,-52.941176,41.176471,45.098039,2,0,0
-2.823529,14.117647,45.176471,0.180392,-0.101961,0.666667,-45.098039,-25.490196,49.019608,2,0,0
-2.823529,14.117647,45.176471,0.180392,-0.211765,0.337255,-13.72549,-9.803922,25.490196,2,0,0
-2.823529,12.705882,46.588235,0.164706,-0.14902,0.478431,-13.72549,-9.803922,17.647059,2,0,0
-4.235294,12.705882,46.588235,0.117647,-0.180392,0.305882,-21.568627,-17.647059,21.568627,2,0,0
-5.647059,11.294118,48,0.086275,-0.196078,0.227451,-33.333333,-41.176471,17.647059,2,0,0
-5.647059,8.470588,48,0.054902,-0.211765,-0.007843,-29.411765,-52.941176,17.647059,2,0,0
-7.058824,7.058824,49.411765,-0.007843,-0.180392,-0.211765,-17.647059,-45.098039,13.72549,2,0,0
-7.058824,5.647059,49.411765,-0.007843,-0.164706,-0.447059,-13.72549,-25.490196,13.72549,2,0,0
-8.470588,5.647059,49.411765,0.023529,-0.133333,-0.4,-21.568627,5.882353,13.72549,2,0,0
-8.470588,5.647059,50.823529,0.054902,-0.14902,-0.290196,-17.647059,-5.882353,5.882353,2,0,0
-8.470588,5.647059,50.823529,-0.023529,0.007843,-0.337255,-1.960784,-13.72549,1.960784,2,0,0
-8.470588,5.647059,50.823529,-0.039216,-0.070588,-0.462745,5.882353,-5.882353,17.647059,2,0,0
-8.470588,5.647059,52.235294,0.007843,-0.196078,-0.321569,5.882353,29.411765,9.803922,2,0,0
-8.470588,7.058824,52.235294,0.023529,-0.211765,-0.039216,13.72549,37.254902,-1.960784,2,0,0
-7.058824,8.470588,50.823529,0.117647,-0.227451,0.211765,21.568627,29.411765,-9.803922,2,0,0
-7.058824,7.058824,50.823529,0.117647,-0.258824,0.180392,25.490196,-5.882353,-25.490196,2,0,0
-5.647059,7.058824,49.411765,0.117647,-0.243137,0.101961,25.490196,5.882353,-37.254902,2,0,0
-4.235294,8.470588,46.588235,0.180392,-0.227451,0.290196,29.411765,37.254902,-72.54902,2,0,0
-4.235294,7.058824,42.352941,0.243137,-0.415686,0.713725,5.882353,-9.803922,-123.529412,2,0,0
-5.647059,7.058824,38.117647,0.14902,-0.478431,0.572549,-17.647059,-29.411765,-154.901961,2,0,0
-7.058824,5.647059,31.058824,0.101961,-0.745098,0.447059,-45.098039,-41.176471,-217.647059,2,0,0
-8.470588,4.235294,22.588235,-0.164706,-0.352941,0.352941,-33.333333,-45.098039,-252.941176,2,1,0
-9.882353,2.823529,15.529412,-0.039216,-0.321569,0.258824,-49.019608,-33.333333,-233.333333,2,1,0
-9.882353,1.411765,7.058824,0.007843,-0.321569,0.4,9.803922,-41.176471,-256.862745,2,1,0
-8.470588,-2.823529,-2.823529,0.007843,-0.290196,0.180392,37.254902,-64.705882,-256.862745,2,1,0
-8.470588,-4.235294,-9.882353,0.101961,-0.196078,-0.039216,-9.803922,-68.627451,-194.117647,2,1,0
-9.882353,-5.647059,-15.529412,0.007843,-0.133333,-0.290196,-37.254902,-49.019608,-178.431373,2,1,0
-11.294118,-7.058824,-21.176471,0.007843,-0.290196,-0.52549,-21.568627,-13.72549,-190.196078,2,1,0
-11.294118,-5.647059,-28.235294,-0.054902,-0.007843,-0.556863,9.803922,29.411765,-209.803922,2,1,0
-9.882353,-4.235294,-33.882353,0.023529,0.305882,-0.305882,9.803922,37.254902,-154.901961,2,1,0
-8.470588,-4.235294,-38.117647,-0.007843,0.054902,-0.415686,17.647059,5.882353,-135.294118,2,1,0
-8.470588,-2.823529,-42.352941,-0.023529,0.14902,-0.682353,-9.803922,9.803922,-127.45098,2,1,0
-7.058824,0,-45.176471,-0.086275,0.14902,-0.635294,5.882353,45.098039,-107.843137,2,1,0
-7.058824,2.823529,-49.411765,-0.086275,0.290196,-0.52549,5.882353,60.784314,-103.921569,2,1,0
-7.058824,4.235294,-52.235294,-0.039216,0.243137,-0.462745,-13.72549,64.705882,-100,2,1,0
-5.647059,5.647059,-55.058824,-0.086275,0.4,-0.368627,-17.647059,56.862745,-80.392157,2,1,0
-7.058824,8.470588,-56.470588,-0.101961,0.384314,-0.290196,-29.411765,52.941176,-52.941176,2,1,0
-7.058824,8.470588,-57.882353,-0.133333,0.368627,-0.211765,-33.333333,25.490196,-41.176471,2,0,0
-7.058824,9.882353,-57.882353,-0.164706,0.509804,-0.196078,-41.176471,13.72549,-13.72549,2,0,0
-8.470588,9.882353,-57.882353,-0.196078,0.431373,-0.258824,-41.176471,9.803922,9.803922,2,0,0
-8.470588,11.294118,-57.882353,-0.180392,0.352941,-0.211765,-29.411765,33.333333,13.72549,2,0,0
-9.882353,11.294118,-56.470588,-0.070588,0.243137,0.14902,-45.098039,25.490196,17.647059,2,0,0
-11.294118,11.294118,-55.058824,-0.007843,0.352941,0.27451,-68.627451,-25.490196,37.254902,2,0,0
-12.705882,9.882353,-53.647059,-0.054902,0.258824,0.086275,-68.627451,-41.176471,52.941176,2,0,0
-14.117647,9.882353,-52.235294,-0.039216,0.070588,0.007843,-37.254902,-1.960784,41.176471,2,0,0
-14.117647,9.882353,-50.823529,0.117647,0.101961,0.384314,-29.411765,21.568627,37.254902,2,0,0
-14.117647,8.470588,-49.411765,0.14902,0.086275,0.572549,-33.333333,-17.647059,29.411765,2,0,0
-15.529412,7.058824,-49.411765,0.054902,0.117647,0.384314,-29.411765,-37.254902,29.411765,2,0,0
-15.529412,7.058824,-48,0.007843,0.133333,0.180392,-5.882353,-5.882353,21.568627,2,0,0
-14.117647,7.058824,-46.588235,0.007843,0.070588,0.164706,1.960784,17.647059,21.568627,2,0,0
-14.117647,7.058824,-46.588235,0.054902,0.070588,0.305882,-1.960784,9.803922,9.803922,2,0,0
-14.117647,7.058824,-46.588235,-0.070588,0.133333,0.352941,-1.960784,-1.960784,1.960784,2,0,0
-12.705882,7.058824,-46.588235,-0.14902,0.243137,0.478431,17.647059,-1.960784,9.803922,2,0,0
-11.294118,7.058824,-45.176471,-0.180392,0.290196,0.619608,33.333333,-9.803922,37.254902,2,1,0
-9.882353,5.647059,-42.352941,-0.070588,0.352941,0.745098,45.098039,-45.098039,64.705882,2,1,0
-7.058824,2.823529,-39.529412,-0.086275,0.243137,0.462745,52.941176,-92.156863,103.921569,2,1,0
-4.235294,0,-35.294118,-0.054902,0.258824,0.211765,68.627451,-84.313725,135.294118,2,1,0
-2.823529,-4.235294,-31.058824,-0.023529,0.180392,0.007843,60.784314,-72.54902,127.45098,2,1,0
1.411765,-5.647059,-26.823529,-0.070588,0.227451,-0.27451,76.470588,-52.941176,111.764706,2,1,0
4.235294,-5.647059,-22.588235,0.007843,0.227451,-0.290196,68.627451,-33.333333,127.45098,2,1,0
8.470588,-7.058824,-18.352941,-0.007843,0.290196,-0.352941,92.156863,-33.333333,135.294118,2,1,0
11.294118,-7.058824,-12.705882,-0.070588,0.258824,-0.494118,68.627451,-29.411765,147.058824,2,1,0
11.294118,-7.058824,-7.058824,-0.007843,0.117647,-0.509804,29.411765,-1.960784,174.509804,2,1,0
12.705882,-7.058824,0,0.054902,0.101961,-0.4,25.490196,1.960784,174.509804,2,1,0
12.705882,-8.470588,5.647059,0.070588,0.070588,-0.352941,5.882353,-13.72549,190.196078,2,1,0
11.294118,-9.882353,12.705882,0.070588,-0.14902,-0.352941,-33.333333,-45.098039,178.431373,2,1,0
9.882353,-11.294118,16.941176,0.133333,-0.117647,-0.52549,-29.411765,-45.098039,154.901961,2,1,0
9.882353,-9.882353,21.176471,0.101961,-0.117647,-0.65098,1.960784,13.72549,131.372549,2,1,0
9.882353,-8.470588,25.411765,0.14902,-0.27451,-0.4,21.568627,60.784314,123.529412,2,1,0
9.882353,-7.058824,28.235294,0.227451,-0.321569,-0.258824,13.72549,49.019608,88.235294,2,0,0
8.470588,-7.058824,31.058824,0.14902,-0.290196,-0.290196,-17.647059,9.803922,76.470588,2,0,0
8.470588,-5.647059,33.882353,0.243137,-0.164706,-0.227451,-1.960784,41.176471,64.705882,2,0,0
8.470588,-4.235294,35.294118,0.164706,-0.180392,-0.054902,13.72549,60.784314,60.784314,2,0,0
7.058824,-2.823529,38.117647,0.196078,-0.321569,-0.039216,5.882353,49.019608,52.941176,2,0,0
7.058824,0,39.529412,0.196078,-0.164706,0.039216,-9.803922,33.333333,45.098039,2,0,0
7.058824,1.411765,40.941176,0.133333,-0.14902,-0.007843,-5.882353,29.411765,52.941176,2,0,0
7.058824,2.823529,42.352941,0.211765,-0.27451,0.117647,21.568627,52.941176,37.254902,2,0,0
7.058824,2.823529,43.764706,0.196078,-0.196078,0.258824,25.490196,37.254902,21.568627,2,0,0
7.058824,4.235294,43.764706,0.101961,-0.164706,0.133333,9.803922,21.568627,29.411765,2,0,0
7.058824,4.235294,45.176471,0.14902,-0.211765,0.117647,5.882353,29.411765,25.490196,2,0,0
7.058824,5.647059,45.176471,0.133333,-0.164706,0.211765,9.803922,21.568627,9.803922,2,0,0
7.058824,5.647059,46.588235,0.070588,-0.117647,0.117647,5.882353,9.803922,13.72549,2,0,0
7.058824,5.647059,46.588235,0.070588,-0.101961,0.070588,1.960784,9.803922,9.803922,2,0,0
7.058824,5.647059,46.588235,0.086275,-0.101961,0.054902,-13.72549,5.882353,9.803922,2,0,0
7.058824,5.647059,46.588235,0.086275,-0.133333,0.039216,1.960784,5.882353,1.960784,2,0,0
7.058824,5.647059,46.588235,0.054902,-0.054902,0.054902,13.72549,5.882353,-9.803922,2,1,0
8.470588,8.470588,45.176471,0.321569,0.227451,0.964706,37.254902,92.156863,-33.333333,2,1,0
8.470588,5.647059,45.176471,-0.007843,-0.117647,0.023529,5.882353,-64.705882,-17.647059,2,1,0
7.058824,7.058824,45.176471,0.023529,-0.039216,-0.101961,-13.72549,17.647059,-13.72549,2,1,0
7.058824,7.058824,45.176471,-0.023529,-0.007843,0.070588,5.882353,1.960784,-1.960784,2,1,0
7.058824,7.058824,45.176471,-0.007843,-0.086275,-0.14902,5.882353,21.568627,-5.882353,2,1,0
7.058824,2.823529,45.176471,0.572549,-0.227451,-0.698039,-5.882353,-100,5.882353,2,1,0
7.058824,2.823529,45.176471,-0.039216,0.117647,-0.101961,1.960784,9.803922,-1.960784,2,1,0
7.058824,2.823529,45.176471,-0.007843,-0.007843,0.054902,-1.960784,1.960784,-1.960784,2,1,0
7.058824,2.823529,45.176471,-0.007843,0.007843,0.007843,-1.960784,-1.960784,-1.960784,2,1,0
7.058824,2.823529,45.176471,-0.007843,0.007843,0.007843,-1.960784,-1.960784,-1.960784,2,1,0
7.058824,2.823529,45.176471,-0.007843,0.007843,-0.007843,-1.960784,-1.960784,-1.960784,2,1,0
7.058824,2.823529,45.176471,-0.007843,0.007843,-0.007843,-1.960784,-1.960784,-1.960784,2,1,0
5.647059,2.823529,45.176471,-0.007843,0.007843,-0.007843,-1.960784,-1.960784,-1.960784,2,1,0
5.647059,2.823529,45.176471,-0.007843,0.007843,-0.007843,-1.960784,-1.960784,-1.960784,2,1,0
5.647059,2.823529,45.176471,-0.007843,0.007843,-0.007843,-1.960784,-1.960784,-1.960784,2,1,0
5.647059,2.823529,45.176471,-0.007843,0.007843,-0.023529,-1.960784,-1.960784,-1.960784,2,1,0
5.647059,2.823529,45.176471,0.039216,-0.070588,-0.054902,-1.960784,1.960784,-5.882353,2,1,0
5.647059,2.823529,43.764706,0.164706,-0.117647,0.007843,9.803922,1.960784,-25.490196,2,1,0
7.058824,1.411765,42.352941,0.101961,-0.133333,0.305882,25.490196,-9.803922,-64.705882,2,1,0
7.058824,1.411765,40.941176,0.211765,0.133333,0.745098,-1.960784,-29.411765,-33.333333,2,1,0
5.647059,-2.823529,40.941176,0.321569,-0.337255,0.933333,-5.882353,-80.392157,-21.568627,2,1,0
5.647059,-7.058824,38.117647,0.290196,-0.478431,0.572549,1.960784,-123.529412,-60.784314,2,1,0
4.235294,-11.294118,36.705882,0.321569,-0.368627,0.290196,-9.803922,-123.529412,-68.627451,2,1,0
5.647059,-14.117647,32.470588,0.305882,-0.305882,0.211765,25.490196,-96.078431,-96.078431,2,1,0
7.058824,-16.941176,29.647059,0.305882,-0.258824,0.196078,56.862745,-92.156863,-123.529412,2,1,0
8.470588,-21.176471,24,0.305882,-0.196078,0.039216,56.862745,-92.156863,-143.137255,2,1,0
9.882353,-22.588235,19.764706,0.196078,-0.14902,-0.101961,41.176471,-88.235294,-143.137255,2,1,0
9.882353,-25.411765,14.117647,0.196078,-0.180392,-0.211765,33.333333,-80.392157,-158.823529,2,1,0
11.294118,-26.823529,8.470588,0.133333,-0.117647,-0.352941,21.568627,-72.54902,-174.509804,2,1,0
11.294118,-29.647059,2.823529,0.054902,0.070588,-0.494118,1.960784,-68.627451,-170.588235,2,1,0
9.882353,-31.058824,-2.823529,0.070588,0.039216,-0.588235,-13.72549,-64.705882,-166.666667,2,1,0
8.470588,-32.470588,-8.470588,0.086275,0.007843,-0.603922,-52.941176,-68.627451,-166.666667,2,1,0
5.647059,-33.882353,-15.529412,-0.007843,0.007843,-0.760784,-68.627451,-56.862745,-182.352941,2,1,0
4.235294,-33.882353,-19.764706,-0.133333,0.290196,-0.745098,-76.470588,-21.568627,-158.823529,2,1,0
2.823529,-32.470588,-24,0.007843,0.258824,-0.635294,-72.54902,5.882353,-135.294118,2,1,0
1.411765,-31.058824,-28.235294,-0.101961,0.384314,-0.509804,-60.784314,9.803922,-115.686275,2,1,0
1.411765,-31.058824,-31.058824,-0.133333,0.478431,-0.462745,-52.941176,5.882353,-100,2,1,0
0,-29.647059,-33.882353,-0.117647,0.4,-0.494118,-60.784314,1.960784,-80.392157,2,1,0
-2.823529,-28.235294,-36.705882,-0.133333,0.431373,-0.368627,-68.627451,9.803922,-68.627451,2,1,0
-5.647059,-28.235294,-38.117647,-0.101961,0.462745,-0.258824,-80.392157,1.960784,-49.019608,2,1,0
-7.058824,-26.823529,-39.529412,-0.086275,0.337255,-0.196078,-60.784314,13.72549,-49.019608,2,1,0
-8.470588,-25.411765,-40.941176,-0.070588,0.415686,0.007843,-80.392157,17.647059,-37.254902,2,1,0
-11.294118,-24,-40.941176,-0.023529,0.4,0.14902,-100,5.882353,-9.803922,2,1,0
-14.117647,-24,-40.941176,-0.007843,0.227451,0.117647,-84.313725,9.803922,5.882353,2,1,0
-15.529412,-22.588235,-40.941176,0.023529,0.070588,0.14902,-56.862745,37.254902,-13.72549,2,1,0
-15.529412,-21.176471,-40.941176,0.007843,0.227451,0.337255,-52.941176,33.333333,-21.568627,2,1,0
-16.941176,-19.764706,-40.941176,-0.039216,0.4,0.447059,-56.862745,25.490196,9.803922,2,1,0
-18.352941,-18.352941,-39.529412,0.007843,0.086275,0.337255,-45.098039,1.960784,25.490196,2,0,1
-19.764706,-18.352941,-39.529412,0.070588,-0.086275,0.14902,-37.254902,13.72549,5.882353,2,0,1
-19.764706,-16.941176,-39.529412,0.023529,0.133333,0.258824,-17.647059,29.411765,-5.882353,2,0,1
-19.764706,-15.529412,-39.529412,0.054902,0.101961,0.14902,-13.72549,17.647059,5.882353,2,0,1
-21.176471,-9.882353,-38.117647,0.086275,0.070588,0.337255,-88.235294,198.039216,25.490196,2,0,1
-21.176471,-8.470588,-38.117647,-0.65098,0.039216,0.494118,-17.647059,-9.803922,5.882353,2,0,1
-21.176471,-8.470588,-38.117647,0.086275,0.227451,0.180392,5.882353,5.882353,1.960784,2,0,1
-19.764706,-8.470588,-38.117647,-0.007843,-0.007843,0.007843,-1.960784,1.960784,-1.960784,2,0,1
-19.764706,-8.470588,-38.117647,-0.039216,-0.007843,0.007843,-1.960784,-1.960784,-1.960784,2,0,1
-19.764706,-8.470588,-38.117647,-0.007843,-0.007843,-0.054902,-1.960784,-1.960784,-1.960784,2,0,1
-19.764706,-8.470588,-38.117647,-0.007843,-0.007843,-0.039216,-1.960784,-1.960784,-1.960784,2,0,1
-18.352941,-8.470588,-38.117647,-0.007843,0.007843,0.007843,-1.960784,-1.960784,-1.960784,2,0,1
-18.352941,-8.470588,-38.117647,-0.007843,-0.007843,0.023529,-1.960784,-1.960784,-1.960784,2,0,1
-18.352941,-8.470588,-38.117647,0.007843,-0.007843,-0.007843,-1.960784,-1.960784,-1.960784,2,0,1
-18.352941,-8.470588,-38.117647,-0.007843,-0.007843,-0.023529,-1.960784,-1.960784,-1.960784,2,0,1
-18.352941,-7.058824,-38.117647,-0.007843,-0.007843,-0.023529,-1.960784,-1.960784,-1.960784,2,0,1
-16.941176,-7.058824,-38.117647,0.007843,-0.007843,-0.007843,-1.960784,-1.960784,-1.960784,2,1,1
-16.941176,-7.058824,-38.117647,-0.007843,-0.007843,-0.007843,-1.960784,-1.960784,-1.960784,2,1,1
-16.941176,-7.058824,-38.117647,-0.007843,-0.007843,-0.007843,-1.960784,-1.960784,-1.960784,2,1,1
-16.941176,-7.058824,-38.117647,0.039216,-0.023529,0.007843,-1.960784,-1.960784,-1.960784,2,1,1
-15.529412,-7.058824,-38.117647,0.023529,-0.023529,-0.039216,5.882353,1.960784,-1.960784,2,1,1
-15.529412,-7.058824,-38.117647,0.023529,0.007843,0.023529,5.882353,9.803922,-1.960784,2,1,1
-14.117647,-5.647059,-39.529412,0.023529,-0.086275,0.337255,17.647059,21.568627,-33.333333,2,1,1
-14.117647,-5.647059,-39.529412,-0.14902,0.180392,0.462745,13.72549,-17.647059,-17.647059,2,1,1
-12.705882,-7.058824,-39.529412,-0.039216,0.27451,0.478431,17.647059,-41.176471,13.72549,2,1,1
-11.294118,-8.470588,-38.117647,-0.133333,0.211765,0.478431,41.176471,-60.784314,29.411765,2,1,1
-9.882353,-11.294118,-36.705882,-0.117647,0.14902,0.290196,21.568627,-76.470588,49.019608,2,1,1
-8.470588,-12.705882,-35.294118,-0.117647,0.14902,0.117647,25.490196,-64.705882,52.941176,2,1,1
-7.058824,-14.117647,-32.470588,-0.101961,0.14902,0.007843,45.098039,-41.176471,52.941176,2,1,1
-4.235294,-14.117647,-31.058824,-0.101961,0.180392,0.007843,60.784314,-29.411765,60.784314,2,1,1
-2.823529,-15.529412,-28.235294,-0.101961,0.196078,0.023529,64.705882,-29.411765,72.54902,2,1,1
1.411765,-15.529412,-25.411765,-0.133333,0.196078,-0.070588,64.705882,-33.333333,88.235294,2,1,1
4.235294,-15.529412,-22.588235,-0.164706,0.196078,-0.227451,72.54902,-21.568627,96.078431,2,0,1
7.058824,-15.529412,-18.352941,-0.180392,0.243137,-0.258824,68.627451,-1.960784,100,2,0,1
9.882353,-14.117647,-15.529412,-0.196078,0.258824,-0.211765,76.470588,9.803922,111.764706,2,0,1
11.294118,-14.117647,-9.882353,-0.164706,0.211765,-0.243137,64.705882,5.882353,131.372549,2,0,1
14.117647,-12.705882,-5.647059,-0.14902,0.227451,-0.337255,52.941176,9.803922,143.137255,2,0,1
15.529412,-11.294118,0,-0.117647,0.133333,-0.415686,52.941176,29.411765,139.215686,2,0,1
18.352941,-9.882353,5.647059,0.007843,0.133333,-0.27451,68.627451,37.254902,135.294118,2,0,1
18.352941,-8.470588,9.882353,-0.007843,0.101961,-0.321569,41.176471,21.568627,150.980392,2,0,1
18.352941,-8.470588,15.529412,0.054902,-0.086275,-0.431373,9.803922,17.647059,154.901961,2,0,1
18.352941,-7.058824,19.764706,0.14902,-0.196078,-0.462745,-13.72549,21.568627,154.901961,2,0,1
15.529412,-7.058824,25.411765,0.243137,-0.321569,-0.431373,-25.490196,25.490196,139.215686,2,0,1
14.117647,-5.647059,28.235294,0.290196,-0.384314,-0.478431,-21.568627,49.019608,111.764706,2,0,1
12.705882,-4.235294,31.058824,0.321569,-0.290196,-0.196078,-21.568627,68.627451,84.313725,2,0,1
11.294118,-2.823529,33.882353,0.337255,-0.211765,-0.007843,-49.019608,56.862745,80.392157,2,0,1
9.882353,0,36.705882,0.352941,-0.27451,0.164706,-45.098039,49.019608,72.54902,2,0,1
7.058824,1.411765,39.529412,0.368627,-0.180392,0.227451,-41.176471,29.411765,64.705882,2,0,1
5.647059,1.411765,40.941176,0.368627,-0.290196,0.180392,-37.254902,25.490196,52.941176,2,0,1
4.235294,2.823529,42.352941,0.352941,-0.180392,0.243137,-33.333333,25.490196,37.254902,2,0,1
4.235294,2.823529,43.764706,0.368627,-0.196078,0.211765,-29.411765,21.568627,29.411765,2,0,1
2.823529,2.823529,43.764706,0.321569,-0.101961,0.290196,-13.72549,21.568627,13.72549,2,0,1
2.823529,2.823529,43.764706,0.27451,-0.086275,0.290196,-9.803922,13.72549,13.72549,2,0,1
2.823529,2.823529,43.764706,0.27451,-0.133333,0.290196,-5.882353,5.882353,5.882353,2,0,1
1.411765,2.823529,43.764706,0.227451,-0.070588,0.352941,-5.882353,1.960784,-5.882353,2,0,1
2.823529,2.823529,43.764706,0.227451,0.054902,0.509804,1.960784,-9.803922,-9.803922,2,0,1
2.823529,1.411765,43.764706,0.180392,0.164706,0.478431,13.72549,-25.490196,-1.960784,2,0,1
4.235294,0,43.764706,0.180392,0.164706,0.478431,29.411765,-41.176471,5.882353,2,0,1
5.647059,-2.823529,45.176471,0.133333,0.101961,0.290196,45.098039,-56.862745,13.72549,2,0,1
7.058824,-5.647059,45.176471,0.133333,0.101961,0.070588,41.176471,-64.705882,25.490196,2,0,1
7.058824,-8.470588,46.588235,0.117647,0.070588,-0.211765,29.411765,-72.54902,33.333333,2,0,1
8.470588,-9.882353,48,0.086275,-0.023529,-0.603922,21.568627,-60.784314,29.411765,2,0,1
8.470588,-11.294118,48,0.070588,-0.023529,-0.792157,17.647059,-17.647059,25.490196,2,0,1
8.470588,-11.294118,49.411765,0.070588,-0.039216,-0.854902,-9.803922,5.882353,29.411765,2,0,1
7.058824,-9.882353,50.823529,0.054902,-0.101961,-0.854902,-21.568627,29.411765,29.411765,2,1,1
5.647059,-8.470588,50.823529,-0.007843,-0.180392,-0.65098,-29.411765,49.019608,17.647059,2,1,1
4.235294,-5.647059,52.235294,-0.007843,-0.196078,-0.321569,-13.72549,56.862745,5.882353,2,1,1
4.235294,-4.235294,52.235294,0.039216,-0.180392,0.054902,-13.72549,56.862745,9.803922,2,1,1
2.823529,-2.823529,52.235294,0.117647,-0.196078,0.290196,-25.490196,25.490196,9.803922,2,1,1
1.411765,-2.823529,53.647059,0.180392,-0.14902,0.243137,-33.333333,9.803922,9.803922,2,1,1
0,-2.823529,53.647059,0.196078,-0.086275,0.164706,-25.490196,9.803922,1.960784,2,1,1
0,-2.823529,53.647059,0.164706,0.007843,0.117647,-9.803922,17.647059,-1.960784,2,1,1
0,0,52.235294,0.180392,-0.023529,0.180392,1.960784,29.411765,-9.803922,2,1,1
0,0,53.647059,0.14902,0.007843,0.227451,-9.803922,17.647059,1.960784,2,1,1
0,0,53.647059,0.211765,-0.133333,0.133333,-5.882353,1.960784,1.960784,2,1,1
0,1.411765,52.235294,0.164706,-0.164706,0.086275,21.568627,21.568627,-9.803922,2,1,1
1.411765,1.411765,52.235294,-0.039216,-0.101961,0.196078,25.490196,21.568627,-9.803922,2,1,1
1.411765,2.823529,52.235294,0.023529,-0.070588,-0.133333,29.411765,41.176471,-9.803922,2,1,1
2.823529,4.235294,52.235294,0.243137,0.462745,0.65098,-1.960784,60.784314,5.882353,2,1,1
2.823529,4.235294,52.235294,-0.039216,-0.054902,-0.243137,5.882353,-25.490196,5.882353,2,1,1
2.823529,4.235294,52.235294,-0.023529,0.007843,0.007843,-1.960784,-1.960784,-1.960784,2,1,1
2.823529,4.235294,52.235294,-0.007843,-0.023529,-0.023529,1.960784,1.960784,-1.960784,2,1,1
2.823529,4.235294,52.235294,0.054902,-0.023529,-0.164706,17.647059,21.568627,-5.882353,2,1,1
2.823529,4.235294,52.235294,0.023529,-0.007843,-0.133333,-1.960784,5.882353,-1.960784,2,1,1
2.823529,4.235294,52.235294,-0.007843,0.007843,-0.023529,-1.960784,-1.960784,-1.960784,2,1,1
2.823529,4.235294,52.235294,-0.007843,0.007843,-0.007843,-1.960784,-1.960784,-1.960784,2,1,1
2.823529,4.235294,52.235294,-0.007843,0.007843,-0.007843,-1.960784,-1.960784,-1.960784,2,1,1
2.823529,4.235294,52.235294,-0.007843,0.007843,-0.007843,-1.960784,-1.960784,-1.960784,2,1,1
2.823529,4.235294,52.235294,-0.023529,0.007843,0.023529,-1.960784,-1.960784,-1.960784,2,1,1
2.823529,4.235294,52.235294,-0.007843,0.007843,-0.007843,-1.960784,-1.960784,-1.960784,2,1,1
2.823529,4.235294,52.235294,0.054902,-0.054902,0.039216,9.803922,5.882353,-17.647059,2,1,1
2.823529,4.235294,50.823529,0.117647,-0.039216,0.619608,-13.72549,-9.803922,-17.647059,2,1,1
1.411765,1.411765,50.823529,0.039216,-0.007843,0.619608,-17.647059,-49.019608,-17.647059,2,1,1
2.823529,0,49.411765,0.133333,-0.054902,0.509804,29.411765,-45.098039,-33.333333,2,1,1
4.235294,-2.823529,48,0.14902,0.070588,0.478431,56.862745,-49.019608,-52.941176,2,1,1
5.647059,-4.235294,48,0.070588,0.321569,0.4,21.568627,-49.019608,-9.803922,2,1,1
5.647059,-5.647059,48,0.180392,0.133333,0.4,25.490196,-49.019608,1.960784,2,1,1
8.470588,-7.058824,48,0.14902,0.117647,0.227451,49.019608,-56.862745,-5.882353,2,1,1
9.882353,-8.470588,48,0.101961,0.117647,0.023529,41.176471,-49.019608,5.882353,2,1,1
9.882353,-9.882353,48,0.039216,0.086275,-0.180392,29.411765,-41.176471,13.72549,2,1,1
11.294118,-11.294118,49.411765,-0.039216,0.070588,-0.588235,17.647059,-25.490196,17.647059,2,1,1
11.294118,-11.294118,49.411765,0.023529,-0.023529,-0.713725,13.72549,1.960784,17.647059,2,1,1
11.294118,-11.294118,49.411765,0.117647,-0.039216,-0.713725,21.568627,-5.882353,1.960784,2,1,1
12.705882,-12.705882,49.411765,0.054902,0.039216,-0.933333,21.568627,-29.411765,-5.882353,2,1,1
15.529412,-12.705882,49.411765,0.054902,0.039216,-1.168627,1.960784,-1.960784,-9.803922,2,1,1
15.529412,-11.294118,49.411765,-0.007843,0.007843,-0.870588,-13.72549,37.254902,-17.647059,2,1,1
14.117647,-9.882353,48,-0.101961,-0.007843,-0.290196,-41.176471,29.411765,-13.72549,2,1,1
11.294118,-9.882353,49.411765,0.023529,0.101961,-0.431373,-56.862745,17.647059,1.960784,2,1,1
9.882353,-7.058824,48,0.054902,0.023529,-0.227451,-37.254902,45.098039,-9.803922,2,1,1
8.470588,-5.647059,48,0.054902,0.054902,-0.039216,-37.254902,45.098039,-5.882353,2,1,1
7.058824,-4.235294,49.411765,0.101961,0.054902,0.133333,-52.941176,37.254902,5.882353,2,1,1
5.647059,-4.235294,49.411765,0.086275,0.054902,0.227451,-52.941176,29.411765,5.882353,2,1,1
4.235294,-2.823529,49.411765,0.086275,0.101961,0.290196,-37.254902,21.568627,9.803922,2,1,1
4.235294,-2.823529,49.411765,0.070588,0.007843,0.27451,-25.490196,25.490196,9.803922,2,1,1
2.823529,0,50.823529,0.133333,0.007843,0.431373,-25.490196,21.568627,13.72549,2,1,1
1.411765,0,50.823529,0.133333,-0.070588,0.352941,-41.176471,9.803922,13.72549,2,1,1
0,0,50.823529,0.14902,-0.039216,0.431373,-33.333333,17.647059,1.960784,2,1,1
0,0,50.823529,0.164706,-0.039216,0.588235,-1.960784,5.882353,-5.882353,2,1,1
0,0,50.823529,0.164706,-0.070588,0.619608,13.72549,1.960784,-9.803922,2,1,1
1.411765,0,49.411765,0.14902,-0.070588,0.792157,21.568627,-5.882353,-17.647059,2,1,1
2.823529,0,49.411765,0.117647,-0.054902,0.839216,33.333333,-29.411765,-21.568627,2,1,1
4.235294,-4.235294,49.411765,0.101961,-0.086275,0.729412,45.098039,-56.862745,-17.647059,2,1,1
5.647059,-5.647059,48,0.039216,-0.023529,0.415686,49.019608,-72.54902,-17.647059,2,1,1
7.058824,-8.470588,48,0.007843,0.023529,0.101961,52.941176,-80.392157,-13.72549,2,1,1
8.470588,-11.294118,48,-0.039216,0.039216,-0.290196,49.019608,-76.470588,-5.882353,2,1,1
9.882353,-12.705882,48,-0.007843,0.039216,-0.666667,45.098039,-56.862745,-1.960784,2,1,1
11.294118,-14.117647,48,0.039216,0.101961,-0.807843,37.254902,-37.254902,-5.882353,2,1,1
14.117647,-12.705882,48,0.023529,0.180392,-1.027451,9.803922,-29.411765,-1.960784,2,1,1
11.294118,-12.705882,48,0.023529,-0.305882,-1.168627,-13.72549,-5.882353,1.960784,2,0,1
11.294118,-12.705882,48,0.054902,0.196078,-0.917647,-33.333333,5.882353,5.882353,2,0,1
9.882353,-11.294118,48,0.007843,0.054902,-0.933333,-45.098039,1.960784,13.72549,2,0,1
8.470588,-11.294118,49.411765,0.070588,-0.101961,-0.698039,-37.254902,41.176471,9.803922,2,0,1
7.058824,-8.470588,49.411765,0.227451,-0.039216,-0.164706,-37.254902,64.705882,-1.960784,2,0,1
4.235294,-7.058824,49.411765,0.164706,-0.133333,0.101961,-56.862745,49.019608,5.882353,2,0,1
2.823529,-5.647059,49.411765,0.101961,-0.023529,0.27451,-52.941176,45.098039,9.803922,2,0,1
1.411765,-4.235294,49.411765,0.180392,-0.054902,0.494118,-41.176471,41.176471,9.803922,2,0,1
0,-2.823529,50.823529,0.211765,0.023529,0.509804,-33.333333,21.568627,13.72549,2,0,1
0,-2.823529,50.823529,0.196078,-0.007843,0.415686,-25.490196,13.72549,13.72549,2,0,1
0,-2.823529,52.235294,0.133333,-0.101961,0.243137,-9.803922,9.803922,13.72549,2,0,1
0,-2.823529,52.235294,0.14902,-0.117647,0.258824,9.803922,21.568627,-1.960784,2,0,1
0,0,52.235294,0.117647,-0.070588,0.243137,9.803922,5.882353,-1.960784,2,0,1
0,0,52.235294,0.086275,-0.117647,0.054902,1.960784,-1.960784,1.960784,2,0,1
0,0,50.823529,0.070588,-0.086275,-0.007843,1.960784,5.882353,-5.882353,2,0,1
0,0,50.823529,0.070588,-0.054902,0.023529,9.803922,9.803922,-13.72549,2,0,1
1.411765,0,50.823529,0.039216,0.007843,-0.023529,5.882353,9.803922,-13.72549,2,0,1
0,0,50.823529,0.039216,0.039216,0.007843,-5.882353,5.882353,-5.882353,2,0,1
0,0,50.823529,0.039216,0.007843,-0.023529,-13.72549,1.960784,5.882353,2,0,1
0,0,50.823529,0.023529,-0.070588,-0.039216,-9.803922,5.882353,-1.960784,2,0,1
0,1.411765,50.823529,0.023529,-0.070588,-0.023529,-1.960784,9.803922,-5.882353,2,0,1
1.411765,2.823529,49.411765,0.290196,-0.023529,-0.14902,56.862745,68.627451,-25.490196,2,0,1
2.823529,2.823529,49.411765,0.101961,0.227451,0.556863,13.72549,-5.882353,-1.960784,2,0,1
2.823529,2.823529,49.411765,-0.007843,0.039216,0.070588,-1.960784,1.960784,-1.960784,2,0,1
2.823529,2.823529,50.823529,-0.007843,-0.007843,-0.007843,-1.960784,-1.960784,-1.960784,2,0,1
2.823529,2.823529,50.823529,-0.007843,-0.007843,-0.007843,-1.960784,-1.960784,-1.960784,2,0,1
2.823529,2.823529,50.823529,-0.007843,-0.007843,-0.007843,-1.960784,-1.960784,-1.960784,2,0,1
1.411765,2.823529,50.823529,-0.007843,0.007843,-0.007843,-1.960784,-1.960784,-1.960784,2,0,1
1.411765,2.823529,50.823529,-0.007843,0.007843,-0.007843,-1.960784,-1.960784,-1.960784,2,0,1
1.411765,2.823529,50.823529,-0.007843,0.007843,-0.007843,-1.960784,-1.960784,-1.960784,2,0,1
1.411765,2.823529,50.823529,-0.007843,0.007843,-0.007843,-1.960784,-1.960784,-1.960784,2,0,1
1.411765,2.823529,50.823529,-0.007843,-0.007843,-0.007843,-1.960784,-1.960784,-1.960784,2,0,1
1.411765,2.823529,50.823529,-0.007843,-0.007843,-0.007843,-1.960784,-1.960784,-1.960784,2,2,0
1.411765,1.411765,50.823529,-0.007843,0.007843,-0.023529,-1.960784,-1.960784,-1.960784,2,2,0
1.411765,1.411765,50.823529,-0.007843,0.007843,-0.023529,-1.960784,-1.960784,-1.960784,2,2,0
1.411765,1.411765,50.823529,-0.007843,0.007843,-0.007843,-1.960784,-1.960784,-1.960784,2,2,0
1.411765,1.411765,50.823529,-0.007843,0.007843,0.007843,-1.960784,-1.960784,-1.960784,2,2,0
1.411765,1.411765,50.823529,-0.007843,0.007843,-0.007843,-1.960784,-1.960784,-1.960784,2,2,0
1.411765,1.411765,49.411765,-0.007843,0.007843,-0.007843,-1.960784,-1.960784,-1.960784,2,2,0
1.411765,1.411765,49.411765,-0.007843,0.007843,0.14902,-9.803922,5.882353,-5.882353,2,2,0
1.411765,1.411765,50.823529,0.164706,-0.054902,0.619608,-17.647059,-13.72549,9.803922,2,2,0
0,0,50.823529,0.180392,-0.337255,0.682353,-9.803922,-49.019608,5.882353,2,2,0
0,-4.235294,49.411765,0.305882,-0.494118,0.509804,9.803922,-64.705882,-21.568627,2,2,0
0,-5.647059,48,0.337255,-0.509804,0.305882,17.647059,-64.705882,-56.862745,2,2,0
0,-8.470588,45.176471,0.321569,-0.4,0.227451,13.72549,-64.705882,-76.470588,2,2,0
0,-9.882353,42.352941,0.290196,-0.337255,0.039216,13.72549,-64.705882,-88.235294,2,2,0
1.411765,-12.705882,39.529412,0.258824,-0.27451,-0.101961,17.647059,-52.941176,-103.921569,2,2,0
1.411765,-14.117647,35.294118,0.27451,-0.227451,-0.117647,21.568627,-45.098039,-119.607843,2,2,0
1.411765,-15.529412,31.058824,0.211765,-0.164706,-0.243137,21.568627,-56.862745,-123.529412,2,1,0
1.411765,-16.941176,26.823529,0.133333,-0.133333,-0.431373,13.72549,-52.941176,-127.45098,2,1,0
1.411765,-18.352941,22.588235,0.086275,-0.070588,-0.52549,1.960784,-29.411765,-135.294118,2,1,0
1.411765,-18.352941,18.352941,0.086275,0.023529,-0.4,-9.803922,-21.568627,-131.372549,2,1,0
1.411765,-19.764706,14.117647,0.039216,0.101961,-0.431373,-29.411765,-33.333333,-123.529412,2,1,0
0,-19.764706,11.294118,-0.039216,0.133333,-0.494118,-41.176471,-21.568627,-115.686275,2,1,0
-2.823529,-19.764706,7.058824,0.007843,0.133333,-0.321569,-41.176471,-21.568627,-115.686275,2,1,0
-4.235294,-21.176471,4.235294,0.023529,0.164706,-0.243137,-49.019608,-37.254902,-103.921569,2,1,0
-5.647059,-21.176471,1.411765,-0.039216,0.164706,-0.384314,-60.784314,-41.176471,-88.235294,2,1,0
-7.058824,-21.176471,-2.823529,-0.039216,0.164706,-0.509804,-64.705882,-17.647059,-76.470588,2,1,0
-8.470588,-21.176471,-5.647059,0.023529,0.14902,-0.321569,-52.941176,5.882353,-76.470588,2,1,0
-8.470588,-21.176471,-7.058824,-0.007843,0.211765,-0.243137,-49.019608,1.960784,-64.705882,2,1,0
-11.294118,-19.764706,-8.470588,-0.023529,0.180392,-0.27451,-60.784314,9.803922,-41.176471,2,1,0
-12.705882,-18.352941,-9.882353,-0.039216,0.117647,-0.196078,-56.862745,33.333333,-37.254902,2,1,0
-12.705882,-16.941176,-11.294118,-0.007843,0.117647,-0.023529,-37.254902,45.098039,-37.254902,2,1,0
-14.117647,-14.117647,-12.705882,-0.039216,0.164706,0.070588,-41.176471,45.098039,-25.490196,2,1,0
-14.117647,-12.705882,-12.705882,-0.023529,0.117647,0.086275,-45.098039,45.098039,-17.647059,2,0,0
-15.529412,-11.294118,-12.705882,-0.039216,0.14902,0.180392,-29.411765,60.784314,-17.647059,2,0,0
-15.529412,-8.470588,-12.705882,0.023529,0.101961,0.290196,-13.72549,49.019608,-9.803922,2,0,0
-15.529412,-7.058824,-14.117647,0.007843,0.054902,0.27451,-13.72549,41.176471,-9.803922,2,0,0
-15.529412,-5.647059,-14.117647,0.023529,0.101961,0.321569,-17.647059,33.333333,-5.882353,2,0,0
-15.529412,-5.647059,-14.117647,0.023529,0.086275,0.258824,-13.72549,21.568627,-1.960784,2,0,0
-15.529412,-4.235294,-14.117647,0.023529,0.023529,0.180392,-1.960784,21.568627,-1.960784,2,0,0
-15.529412,-4.235294,-14.117647,0.054902,-0.007843,0.196078,-1.960784,17.647059,-5.882353,2,0,0
-18.352941,-8.470588,-14.117647,0.619608,-0.070588,1.341176,-1.960784,143.137255,-25.490196,2,0,0
-16.941176,-9.882353,-14.117647,-0.447059,-0.054902,-0.321569,13.72549,-60.784314,1.960784,2,0,0
-16.941176,-9.882353,-14.117647,0.054902,-0.070588,-0.180392,-1.960784,-17.647059,1.960784,2,0,0
-16.941176,-9.882353,-14.117647,0.070588,0.007843,0.070588,-5.882353,-9.803922,-9.803922,2,0,0
-16.941176,-11.294118,-15.529412,0.007843,0.070588,0.133333,5.882353,-17.647059,-13.72549,2,0,0
-15.529412,-9.882353,-15.529412,-0.007843,0.086275,0.337255,17.647059,9.803922,-13.72549,2,0,0
-14.117647,-11.294118,-15.529412,-0.007843,0.227451,0.541176,21.568627,-13.72549,-9.803922,2,0,0
-14.117647,-11.294118,-15.529412,-0.039216,0.227451,0.447059,13.72549,-49.019608,13.72549,2,0,0
-12.705882,-14.117647,-14.117647,-0.133333,0.27451,0.196078,21.568627,-60.784314,21.568627,2,1,0
-9.882353,-14.117647,-12.705882,-0.14902,0.321569,-0.007843,37.254902,-45.098039,21.568627,2,1,0
-8.470588,-15.529412,-12.705882,-0.133333,0.368627,-0.023529,41.176471,-33.333333,41.176471,2,1,0
-5.647059,-15.529412,-9.882353,-0.133333,0.321569,-0.14902,49.019608,-25.490196,52.941176,2,1,0
-4.235294,-15.529412,-8.470588,-0.14902,0.305882,-0.196078,52.941176,-17.647059,68.627451,2,1,0
0,-15.529412,-5.647059,-0.14902,0.258824,-0.27451,41.176471,-9.803922,80.392157,2,1,0
1.411765,-15.529412,0,-0.101961,0.180392,-0.196078,45.098039,-1.960784,96.078431,2,1,0
2.823529,-14.117647,2.823529,-0.070588,0.070588,-0.27451,45.098039,1.960784,96.078431,2,1,0
4.235294,-14.117647,5.647059,-0.007843,0.039216,-0.290196,33.333333,13.72549,92.156863,2,1,0
4.235294,-12.705882,9.882353,0.007843,0.117647,-0.227451,21.568627,17.647059,96.078431,2,1,0
5.647059,-12.705882,12.705882,0.007843,0.054902,-0.290196,13.72549,13.72549,103.921569,2,1,0
5.647059,-11.294118,15.529412,0.054902,-0.070588,-0.305882,5.882353,25.490196,100,2,1,0
5.647059,-9.882353,19.764706,0.117647,-0.14902,-0.180392,-1.960784,29.411765,96.078431,2,1,0
4.235294,-9.882353,22.588235,0.164706,-0.258824,-0.196078,-13.72549,25.490196,88.235294,2,1,0
2.823529,-8.470588,24,0.211765,-0.384314,-0.133333,-13.72549,29.411765,68.627451,2,1,0
2.823529,-7.058824,26.823529,0.243137,-0.352941,-0.086275,-21.568627,33.333333,49.019608,2,1,0
1.411765,-7.058824,26.823529,0.243137,-0.243137,0.070588,-25.490196,33.333333,33.333333,2,0,0
0,-5.647059,28.235294,0.258824,-0.211765,0.14902,-25.490196,17.647059,21.568627,2,0,0
0,-5.647059,28.235294,0.227451,-0.117647,0.117647,-17.647059,13.72549,13.72549,2,0,0
-2.823529,-5.647059,29.647059,0.243137,-0.117647,0.133333,-25.490196,1.960784,13.72549,2,0,0
-2.823529,-5.647059,29.647059,0.196078,-0.039216,0.086275,-25.490196,-1.960784,9.803922,2,0,0
-4.235294,-5.647059,29.647059,0.180392,-0.023529,0.070588,-25.490196,-1.960784,13.72549,2,0,0
-4.235294,-7.058824,29.647059,0.196078,-0.086275,-0.023529,-21.568627,-1.960784,5.882353,2,0,0
-5.647059,-5.647059,29.647059,0.164706,0.007843,-0.023529,-25.490196,1.960784,-1.960784,2,0,0
-5.647059,-5.647059,29.647059,0.14902,0.007843,0.007843,-17.647059,1.960784,-1.960784,2,0,0
-5.647059,-5.647059,29.647059,0.117647,0.023529,-0.007843,-1.960784,9.803922,-5.882353,2,0,0
-5.647059,-5.647059,29.647059,0.133333,0.023529,0.054902,-1.960784,17.647059,-5.882353,2,0,0
-5.647059,-5.647059,29.647059,0.117647,0.054902,0.086275,-13.72549,5.882353,1.960784,2,0,0
-7.058824,-5.647059,29.647059,0.086275,0.023529,-0.023529,-25.490196,1.960784,5.882353,2,0,0
-7.058824,-4.235294,31.058824,0.039216,0.007843,-0.101961,-17.647059,13.72549,1.960784,2,0,0
-7.058824,-4.235294,31.058824,0.007843,-0.023529,-0.054902,-1.960784,29.411765,-1.960784,2,0,0
-7.058824,-2.823529,31.058824,0.023529,-0.039216,-0.007843,1.960784,17.647059,-1.960784,2,0,0
-7.058824,-2.823529,31.058824,-0.039216,-0.023529,-0.086275,-9.803922,9.803922,1.960784,2,1,1
-7.058824,0,31.058824,-0.054902,-0.039216,-0.086275,-1.960784,13.72549,1.960784,2,1,1
-2.823529,2.823529,28.235294,1.011765,-0.258824,0.964706,139.215686,135.294118,-64.705882,2,1,1
-2.823529,2.823529,29.647059,-0.054902,0.007843,0.227451,1.960784,-5.882353,5.882353,2,1,1
-2.823529,2.823529,29.647059,0.070588,-0.023529,-0.133333,-1.960784,1.960784,9.803922,2,1,1
-2.823529,2.823529,29.647059,0.023529,-0.007843,-0.007843,-1.960784,-1.960784,5.882353,2,1,1
-2.823529,2.823529,29.647059,0.007843,-0.007843,-0.007843,-1.960784,-1.960784,-1.960784,2,1,1
-2.823529,2.823529,29.647059,-0.007843,-0.007843,-0.023529,-1.960784,-1.960784,-1.960784,2,1,1
-2.823529,2.823529,29.647059,-0.007843,-0.007843,-0.023529,-1.960784,-1.960784,-1.960784,2,1,1
-2.823529,2.823529,29.647059,-0.007843,-0.007843,-0.007843,-1.960784,-1.960784,-1.960784,2,1,1
-2.823529,2.823529,29.647059,0.007843,-0.007843,0.007843,1.960784,-1.960784,1.960784,2,1,1
0,1.411765,29.647059,0.086275,-0.305882,0.164706,13.72549,-9.803922,-5.882353,2,1,1
-2.823529,1.411765,29.647059,0.321569,-0.133333,0.666667,-13.72549,1.960784,-13.72549,2,1,1
-4.235294,0,29.647059,0.321569,-0.27451,0.666667,-41.176471,-64.705882,-1.960784,2,1,1
-5.647059,-4.235294,28.235294,0.4,-0.352941,0.227451,-29.411765,-68.627451,-29.411765,2,1,1
-4.235294,-5.647059,26.823529,0.384314,-0.14902,0.243137,5.882353,-49.019608,-56.862745,2,1,1
-4.235294,-8.470588,25.411765,0.415686,-0.070588,0.243137,29.411765,-64.705882,-64.705882,2,1,1
-2.823529,-11.294118,22.588235,0.321569,-0.070588,-0.007843,17.647059,-76.470588,-52.941176,2,1,1
-2.823529,-14.117647,21.176471,0.290196,-0.054902,-0.227451,-1.960784,-80.392157,-45.098039,2,1,1
-2.823529,-15.529412,19.764706,0.196078,0.054902,-0.431373,1.960784,-68.627451,-45.098039,2,1,1
-2.823529,-16.941176,18.352941,0.164706,0.007843,-0.588235,13.72549,-41.176471,-49.019608,2,1,1
0,-18.352941,16.941176,0.196078,-0.007843,-0.52549,9.803922,-5.882353,-49.019608,2,1,1
0,-18.352941,16.941176,0.133333,0.14902,-0.447059,-13.72549,-13.72549,-29.411765,2,1,1
-2.823529,-18.352941,15.529412,0.023529,0.039216,-0.556863,-29.411765,-13.72549,-17.647059,2,1,1
-2.823529,-16.941176,15.529412,0.117647,-0.007843,-0.431373,-13.72549,25.490196,-29.411765,2,1,1
