Eulerx,Eulery,Eulerz,Accx,Accy,Accz,Gyrox,Gyroy,Gyroz,Label
5.647059,4.235294,52.235294,-0.039216,0.007843,-0.007843,1.960784,1.960784,-1.960784,Null
5.647059,4.235294,52.235294,-0.039216,0.007843,-0.007843,1.960784,1.960784,-1.960784,Null
5.647059,4.235294,52.235294,-0.039216,0.007843,0.007843,1.960784,1.960784,-1.960784,Null
5.647059,4.235294,52.235294,-0.039216,0.007843,0.007843,1.960784,1.960784,-1.960784,Null
5.647059,4.235294,52.235294,-0.023529,0.007843,0.007843,1.960784,1.960784,-1.960784,Null
5.647059,4.235294,52.235294,-0.039216,0.007843,0.007843,1.960784,1.960784,-1.960784,Null
5.647059,4.235294,52.235294,-0.039216,0.007843,-0.007843,1.960784,1.960784,-1.960784,Null
5.647059,4.235294,52.235294,-0.039216,0.007843,0.007843,1.960784,1.960784,-1.960784,Null
5.647059,4.235294,52.235294,-0.039216,0.007843,0.007843,1.960784,1.960784,-1.960784,Null
5.647059,4.235294,52.235294,-0.039216,0.007843,0.007843,1.960784,1.960784,-1.960784,Null
5.647059,4.235294,52.235294,-0.039216,0.007843,-0.007843,1.960784,1.960784,-1.960784,Null
5.647059,4.235294,52.235294,-0.023529,0.007843,0.007843,1.960784,1.960784,-1.960784,Null
5.647059,4.235294,52.235294,-0.039216,0.007843,0.007843,1.960784,1.960784,-1.960784,Null
5.647059,4.235294,52.235294,-0.039216,0.007843,0.007843,1.960784,1.960784,-1.960784,Null
5.647059,4.235294,52.235294,-0.023529,0.007843,0.007843,1.960784,1.960784,-1.960784,Null
5.647059,4.235294,52.235294,-0.039216,0.023529,0.007843,1.960784,1.960784,-1.960784,Null
5.647059,4.235294,52.235294,-0.039216,0.007843,-0.007843,1.960784,1.960784,-1.960784,Null
5.647059,4.235294,52.235294,-0.039216,0.007843,-0.007843,1.960784,1.960784,-1.960784,Null
5.647059,4.235294,52.235294,-0.039216,0.007843,-0.007843,1.960784,1.960784,-1.960784,Null
5.647059,4.235294,52.235294,-0.023529,0.007843,0.007843,1.960784,1.960784,-1.960784,Null
5.647059,4.235294,52.235294,-0.039216,0.007843,0.007843,1.960784,1.960784,-1.960784,Null
5.647059,4.235294,52.235294,-0.023529,0.007843,0.007843,1.960784,1.960784,-1.960784,Null
5.647059,4.235294,52.235294,-0.039216,0.007843,0.007843,1.960784,1.960784,-1.960784,Null
5.647059,4.235294,52.235294,-0.023529,0.007843,0.007843,1.960784,1.960784,-1.960784,Null
5.647059,4.235294,52.235294,-0.039216,0.007843,-0.007843,1.960784,1.960784,-1.960784,Null
5.647059,4.235294,52.235294,-0.039216,0.007843,0.007843,1.960784,1.960784,-1.960784,Null
5.647059,4.235294,52.235294,-0.039216,0.007843,-0.007843,1.960784,1.960784,-1.960784,Null
5.647059,4.235294,52.235294,-0.039216,0.007843,0.007843,1.960784,1.960784,-1.960784,Null
5.647059,4.235294,52.235294,-0.023529,0.007843,-0.007843,1.960784,1.960784,-1.960784,Null
5.647059,4.235294,52.235294,-0.039216,0.007843,0.007843,1.960784,1.960784,-1.960784,Null
5.647059,4.235294,52.235294,-0.039216,0.007843,0.007843,1.960784,1.960784,-1.960784,Null
5.647059,4.235294,52.235294,-0.039216,0.007843,0.007843,1.960784,1.960784,-1.960784,Null
5.647059,4.235294,52.235294,-0.023529,0.007843,0.007843,1.960784,1.960784,-1.960784,Null
5.647059,4.235294,52.235294,-0.039216,0.007843,-0.007843,1.960784,1.960784,-1.960784,Null
5.647059,4.235294,52.235294,-0.023529,0.007843,-0.007843,1.960784,1.960784,-1.960784,Null
5.647059,4.235294,52.235294,-0.039216,0.007843,-0.007843,1.960784,1.960784,-1.960784,Null
5.647059,4.235294,52.235294,-0.023529,0.007843,-0.007843,1.960784,1.960784,-1.960784,Null
5.647059,4.235294,52.235294,-0.039216,0.007843,0.007843,1.960784,1.960784,-1.960784,Null
5.647059,4.235294,52.235294,-0.023529,0.007843,-0.007843,1.960784,1.960784,-1.960784,Null
5.647059,4.235294,52.235294,-0.023529,0.023529,0.007843,1.960784,1.960784,-1.960784,Null
5.647059,4.235294,52.235294,-0.039216,0.007843,0.007843,1.960784,1.960784,-1.960784,Null
5.647059,4.235294,52.235294,-0.039216,0.023529,0.007843,1.960784,1.960784,-1.960784,Null
5.647059,4.235294,52.235294,-0.023529,0.007843,-0.007843,1.960784,1.960784,-1.960784,Null
5.647059,4.235294,52.235294,-0.023529,0.007843,0.007843,1.960784,1.960784,-1.960784,Null
5.647059,4.235294,52.235294,-0.039216,0.007843,0.007843,1.960784,1.960784,-1.960784,Null
5.647059,4.235294,52.235294,-0.023529,0.007843,0.007843,1.960784,1.960784,-1.960784,Null
5.647059,4.235294,52.235294,-0.039216,0.007843,-0.007843,1.960784,1.960784,-1.960784,Null
5.647059,4.235294,52.235294,-0.039216,0.007843,0.007843,1.960784,1.960784,-1.960784,Null
5.647059,4.235294,52.235294,-0.023529,0.007843,0.007843,1.960784,1.960784,-1.960784,Null
5.647059,4.235294,52.235294,-0.023529,0.007843,-0.007843,1.960784,1.960784,-1.960784,Null
5.647059,4.235294,52.235294,-0.023529,0.007843,0.007843,1.960784,1.960784,-1.960784,Null
5.647059,4.235294,52.235294,-0.039216,0.007843,0.007843,1.960784,1.960784,-1.960784,Null
5.647059,4.235294,52.235294,-0.039216,0.007843,-0.007843,1.960784,1.960784,-1.960784,Null
5.647059,4.235294,52.235294,-0.039216,0.007843,0.007843,1.960784,1.960784,-1.960784,Null
5.647059,4.235294,52.235294,-0.039216,0.007843,0.007843,1.960784,1.960784,-1.960784,Null
5.647059,4.235294,52.235294,-0.039216,0.007843,0.007843,1.960784,1.960784,-1.960784,Null
5.647059,4.235294,52.235294,-0.023529,0.007843,-0.007843,1.960784,1.960784,-1.960784,Null
5.647059,4.235294,52.235294,-0.023529,0.007843,0.007843,1.960784,1.960784,-1.960784,Null
5.647059,4.235294,52.235294,-0.023529,0.007843,0.007843,1.960784,1.960784,-1.960784,Null
5.647059,4.235294,52.235294,-0.039216,0.007843,0.007843,1.960784,1.960784,-1.960784,Null
5.647059,4.235294,52.235294,-0.039216,0.007843,0.007843,1.960784,1.960784,-1.960784,Null
5.647059,4.235294,52.235294,-0.023529,0.007843,0.007843,1.960784,1.960784,-1.960784,Null
5.647059,4.235294,52.235294,-0.023529,0.007843,0.007843,1.960784,1.960784,-1.960784,Null
5.647059,4.235294,52.235294,-0.039216,0.007843,-0.007843,1.960784,1.960784,-1.960784,Null
5.647059,4.235294,52.235294,-0.039216,0.007843,0.007843,1.960784,1.960784,-1.960784,Null
5.647059,4.235294,52.235294,-0.039216,0.007843,0.007843,1.960784,1.960784,-1.960784,Null
5.647059,4.235294,52.235294,-0.039216,0.007843,0.007843,1.960784,1.960784,-1.960784,Null
5.647059,4.235294,52.235294,-0.039216,0.007843,0.007843,1.960784,1.960784,-1.960784,Null
5.647059,4.235294,52.235294,-0.039216,0.007843,-0.007843,1.960784,1.960784,-1.960784,Null
5.647059,4.235294,52.235294,-0.039216,0.007843,-0.007843,1.960784,1.960784,-1.960784,Null
5.647059,4.235294,50.823529,-0.039216,0.007843,0.007843,1.960784,1.960784,-1.960784,Null
5.647059,4.235294,50.823529,-0.039216,0.007843,-0.007843,1.960784,1.960784,-1.960784,Null
5.647059,4.235294,50.823529,-0.023529,0.007843,-0.007843,1.960784,1.960784,-1.960784,Null
5.647059,4.235294,50.823529,-0.039216,0.007843,-0.007843,1.960784,1.960784,-1.960784,Null
5.647059,4.235294,50.823529,-0.039216,0.007843,-0.007843,1.960784,1.960784,-1.960784,Null
5.647059,4.235294,50.823529,-0.039216,0.007843,0.007843,1.960784,1.960784,-1.960784,Null
5.647059,4.235294,50.823529,-0.039216,0.007843,0.007843,1.960784,1.960784,-1.960784,Null
5.647059,4.235294,50.823529,-0.023529,0.007843,0.007843,1.960784,1.960784,-1.960784,Null
5.647059,4.235294,50.823529,-0.039216,0.007843,0.007843,1.960784,1.960784,-1.960784,Null
5.647059,4.235294,50.823529,-0.039216,0.007843,0.007843,1.960784,1.960784,-1.960784,Null
5.647059,4.235294,50.823529,-0.023529,0.007843,0.007843,1.960784,1.960784,-1.960784,Null
5.647059,4.235294,50.823529,-0.039216,0.007843,0.007843,1.960784,1.960784,-1.960784,Null
5.647059,4.235294,50.823529,-0.023529,0.007843,0.007843,1.960784,1.960784,-1.960784,Null
5.647059,4.235294,50.823529,-0.023529,0.007843,0.007843,1.960784,1.960784,-1.960784,Null
5.647059,4.235294,50.823529,-0.039216,0.007843,0.007843,1.960784,1.960784,-1.960784,Null
5.647059,4.235294,50.823529,-0.039216,0.007843,0.007843,1.960784,1.960784,-1.960784,Null
5.647059,4.235294,50.823529,-0.023529,0.007843,-0.007843,1.960784,1.960784,-1.960784,Null
5.647059,4.235294,50.823529,-0.039216,0.007843,0.007843,1.960784,1.960784,-1.960784,Null
5.647059,4.235294,50.823529,-0.039216,0.007843,0.007843,1.960784,1.960784,-1.960784,Null
5.647059,4.235294,50.823529,-0.023529,0.007843,-0.007843,1.960784,1.960784,-1.960784,Null
5.647059,4.235294,50.823529,-0.023529,0.007843,0.007843,1.960784,1.960784,-1.960784,Null
5.647059,4.235294,50.823529,-0.039216,0.007843,0.007843,1.960784,1.960784,-1.960784,Null
5.647059,4.235294,50.823529,-0.039216,0.007843,0.007843,1.960784,1.960784,-1.960784,Null
5.647059,4.235294,50.823529,-0.023529,0.007843,-0.007843,1.960784,1.960784,-1.960784,Null
5.647059,4.235294,50.823529,-0.039216,0.007843,-0.007843,1.960784,1.960784,-1.960784,Null
5.647059,4.235294,50.823529,-0.039216,0.007843,-0.007843,1.960784,1.960784,-1.960784,Null
5.647059,4.235294,50.823529,-0.023529,0.023529,-0.007843,1.960784,1.960784,-1.960784,Null
5.647059,4.235294,50.823529,-0.039216,0.007843,-0.007843,1.960784,1.960784,-1.960784,Null
5.647059,4.235294,50.823529,-0.023529,0.007843,-0.007843,1.960784,1.960784,-1.960784,Null
5.647059,4.235294,50.823529,-0.039216,0.007843,0.007843,1.960784,1.960784,-1.960784,Null
5.647059,4.235294,50.823529,-0.039216,0.007843,0.007843,1.960784,1.960784,-1.960784,Null
5.647059,4.235294,50.823529,-0.023529,0.007843,-0.007843,1.960784,1.960784,-1.960784,Null
5.647059,4.235294,50.823529,-0.039216,0.007843,-0.007843,1.960784,1.960784,-1.960784,Null
5.647059,4.235294,50.823529,-0.039216,0.007843,-0.007843,1.960784,1.960784,-1.960784,Null
5.647059,4.235294,50.823529,-0.039216,0.007843,0.007843,1.960784,1.960784,-1.960784,Null
5.647059,4.235294,50.823529,-0.039216,0.007843,0.007843,1.960784,1.960784,-1.960784,Null
5.647059,4.235294,50.823529,-0.039216,0.007843,0.007843,1.960784,1.960784,-1.960784,Null
5.647059,4.235294,50.823529,-0.039216,0.007843,-0.007843,1.960784,1.960784,-1.960784,Null
5.647059,4.235294,50.823529,-0.023529,0.007843,0.007843,1.960784,1.960784,-1.960784,Null
5.647059,4.235294,50.823529,-0.039216,0.007843,0.007843,1.960784,1.960784,-1.960784,Null
5.647059,4.235294,50.823529,-0.039216,0.007843,0.007843,1.960784,1.960784,-1.960784,Null
5.647059,4.235294,50.823529,-0.023529,0.007843,0.007843,1.960784,1.960784,-1.960784,Null
5.647059,4.235294,50.823529,-0.039216,0.007843,0.007843,1.960784,1.960784,-1.960784,Null
5.647059,4.235294,50.823529,-0.039216,0.007843,-0.007843,1.960784,1.960784,-1.960784,Null
5.647059,4.235294,50.823529,-0.039216,0.007843,0.007843,1.960784,1.960784,-1.960784,Null
5.647059,4.235294,50.823529,-0.039216,0.007843,0.007843,1.960784,1.960784,-1.960784,Null
5.647059,4.235294,50.823529,-0.039216,0.007843,-0.007843,1.960784,1.960784,-1.960784,Null
5.647059,4.235294,50.823529,-0.039216,0.007843,-0.007843,1.960784,1.960784,-1.960784,Null
5.647059,4.235294,50.823529,-0.039216,0.007843,0.007843,1.960784,1.960784,-1.960784,Null
5.647059,4.235294,50.823529,-0.023529,0.007843,0.007843,1.960784,1.960784,-1.960784,Null
5.647059,4.235294,50.823529,-0.023529,0.007843,0.007843,1.960784,1.960784,-1.960784,Null
5.647059,4.235294,50.823529,-0.039216,0.007843,0.007843,1.960784,1.960784,-1.960784,Null
5.647059,4.235294,50.823529,-0.039216,0.007843,0.007843,1.960784,1.960784,-1.960784,Null
5.647059,4.235294,50.823529,-0.023529,0.007843,0.007843,1.960784,1.960784,-1.960784,Null
5.647059,4.235294,50.823529,-0.039216,0.007843,-0.007843,1.960784,1.960784,-1.960784,Null
5.647059,4.235294,50.823529,-0.039216,0.007843,0.007843,1.960784,1.960784,-1.960784,Null
5.647059,4.235294,50.823529,-0.039216,0.007843,0.007843,1.960784,1.960784,-1.960784,Null
5.647059,4.235294,50.823529,-0.023529,0.023529,0.007843,1.960784,1.960784,-1.960784,Null
5.647059,4.235294,50.823529,-0.039216,0.007843,-0.007843,1.960784,1.960784,-1.960784,Null
5.647059,4.235294,50.823529,-0.039216,0.007843,-0.007843,1.960784,1.960784,-1.960784,Null
5.647059,4.235294,50.823529,-0.023529,0.007843,-0.007843,1.960784,1.960784,-1.960784,Null
5.647059,4.235294,50.823529,-0.039216,0.007843,0.007843,1.960784,1.960784,-1.960784,Null
5.647059,4.235294,50.823529,-0.023529,0.007843,-0.007843,1.960784,1.960784,-1.960784,Null
5.647059,4.235294,50.823529,-0.039216,0.007843,0.007843,1.960784,1.960784,-1.960784,3
5.647059,4.235294,50.823529,-0.039216,0.007843,0.007843,1.960784,1.960784,-1.960784,3
5.647059,4.235294,50.823529,-0.039216,0.007843,0.007843,1.960784,1.960784,-1.960784,3
5.647059,4.235294,50.823529,-0.039216,0.007843,-0.007843,1.960784,1.960784,-1.960784,3
5.647059,4.235294,50.823529,-0.039216,0.007843,-0.007843,1.960784,1.960784,-1.960784,3
5.647059,4.235294,50.823529,-0.039216,0.007843,0.007843,1.960784,1.960784,-1.960784,3
5.647059,4.235294,50.823529,-0.039216,0.007843,0.007843,1.960784,1.960784,-1.960784,3
5.647059,4.235294,50.823529,-0.023529,0.007843,-0.007843,1.960784,1.960784,-1.960784,3
5.647059,4.235294,50.823529,-0.039216,0.007843,0.007843,1.960784,1.960784,-1.960784,3
5.647059,4.235294,50.823529,-0.039216,0.007843,-0.007843,1.960784,1.960784,-1.960784,3
5.647059,4.235294,50.823529,-0.039216,0.007843,0.007843,1.960784,1.960784,-1.960784,3
5.647059,4.235294,50.823529,-0.023529,0.007843,0.007843,1.960784,1.960784,-1.960784,3
5.647059,4.235294,50.823529,-0.039216,0.007843,-0.007843,1.960784,1.960784,-1.960784,3
5.647059,4.235294,50.823529,-0.039216,0.007843,0.007843,1.960784,1.960784,-1.960784,3
5.647059,4.235294,50.823529,-0.039216,0.007843,0.007843,1.960784,1.960784,-1.960784,3
5.647059,4.235294,50.823529,-0.039216,0.007843,0.007843,1.960784,1.960784,-1.960784,3
5.647059,4.235294,50.823529,-0.039216,0.007843,0.007843,1.960784,1.960784,-1.960784,3
5.647059,4.235294,50.823529,-0.023529,0.007843,0.007843,1.960784,1.960784,-1.960784,3
5.647059,4.235294,50.823529,-0.023529,0.007843,-0.007843,1.960784,1.960784,-1.960784,3
5.647059,4.235294,50.823529,-0.023529,0.007843,0.007843,1.960784,1.960784,-1.960784,3
5.647059,4.235294,50.823529,-0.023529,0.007843,0.007843,1.960784,1.960784,-1.960784,3
5.647059,4.235294,50.823529,-0.039216,0.007843,0.007843,1.960784,1.960784,-1.960784,3
5.647059,4.235294,50.823529,-0.023529,0.007843,-0.007843,1.960784,1.960784,-1.960784,3
5.647059,4.235294,50.823529,-0.039216,0.007843,-0.007843,1.960784,1.960784,-1.960784,3
5.647059,4.235294,50.823529,-0.039216,0.007843,0.007843,1.960784,1.960784,-1.960784,3
5.647059,4.235294,50.823529,-0.039216,0.007843,-0.007843,1.960784,1.960784,-1.960784,3
5.647059,4.235294,50.823529,-0.039216,0.007843,0.007843,1.960784,1.960784,-1.960784,3
5.647059,4.235294,50.823529,-0.039216,0.007843,-0.007843,1.960784,1.960784,-1.960784,3
5.647059,4.235294,50.823529,-0.023529,0.007843,-0.007843,1.960784,1.960784,-1.960784,3
5.647059,4.235294,50.823529,-0.039216,0.007843,0.007843,1.960784,1.960784,-1.960784,3
5.647059,4.235294,50.823529,-0.023529,0.007843,-0.007843,1.960784,1.960784,-1.960784,3
5.647059,4.235294,50.823529,-0.023529,0.007843,0.007843,1.960784,1.960784,-1.960784,3
5.647059,4.235294,50.823529,-0.039216,0.023529,-0.007843,1.960784,1.960784,-1.960784,3
5.647059,4.235294,50.823529,-0.039216,0.007843,0.007843,1.960784,1.960784,-1.960784,3
5.647059,4.235294,50.823529,-0.039216,0.007843,-0.007843,1.960784,1.960784,-1.960784,3
5.647059,4.235294,50.823529,-0.039216,0.007843,0.007843,1.960784,1.960784,-1.960784,3
5.647059,4.235294,50.823529,-0.023529,0.007843,-0.007843,1.960784,1.960784,-1.960784,3
5.647059,4.235294,50.823529,-0.039216,0.007843,0.007843,1.960784,1.960784,-1.960784,3
5.647059,4.235294,50.823529,-0.023529,0.007843,-0.007843,1.960784,1.960784,-1.960784,3
5.647059,4.235294,50.823529,-0.023529,0.007843,0.007843,1.960784,1.960784,-1.960784,3
5.647059,4.235294,50.823529,-0.039216,0.007843,-0.007843,1.960784,1.960784,-1.960784,3
5.647059,4.235294,50.823529,-0.039216,0.007843,0.007843,1.960784,1.960784,-1.960784,3
5.647059,4.235294,50.823529,-0.039216,0.007843,0.007843,1.960784,1.960784,-1.960784,3
5.647059,4.235294,50.823529,-0.039216,0.007843,0.007843,1.960784,1.960784,-1.960784,3
5.647059,4.235294,50.823529,-0.039216,0.007843,0.007843,1.960784,1.960784,-1.960784,3
5.647059,4.235294,50.823529,-0.039216,0.007843,0.007843,1.960784,1.960784,-1.960784,3
5.647059,4.235294,50.823529,-0.039216,0.007843,-0.007843,1.960784,1.960784,-1.960784,3
5.647059,4.235294,50.823529,-0.039216,0.007843,0.007843,1.960784,1.960784,-1.960784,3
5.647059,4.235294,50.823529,-0.039216,0.007843,0.007843,1.960784,1.960784,-1.960784,3
5.647059,4.235294,50.823529,-0.023529,0.007843,0.007843,1.960784,1.960784,-1.960784,3
5.647059,4.235294,50.823529,-0.023529,0.007843,0.007843,1.960784,1.960784,-1.960784,3
5.647059,4.235294,50.823529,-0.039216,0.007843,-0.007843,1.960784,1.960784,-1.960784,3
5.647059,4.235294,50.823529,-0.023529,0.007843,-0.007843,1.960784,1.960784,-1.960784,3
5.647059,4.235294,50.823529,-0.039216,0.007843,-0.007843,1.960784,1.960784,-1.960784,3
5.647059,4.235294,50.823529,-0.039216,0.007843,0.007843,1.960784,1.960784,-1.960784,3
5.647059,4.235294,50.823529,-0.039216,0.023529,0.007843,1.960784,1.960784,-1.960784,3
5.647059,4.235294,50.823529,-0.039216,0.007843,-0.007843,1.960784,1.960784,-1.960784,3
5.647059,4.235294,50.823529,-0.039216,0.007843,0.007843,1.960784,1.960784,-1.960784,3
5.647059,4.235294,50.823529,-0.039216,0.007843,0.007843,1.960784,1.960784,-1.960784,3
5.647059,4.235294,50.823529,-0.039216,0.007843,0.007843,1.960784,1.960784,-1.960784,3
5.647059,4.235294,50.823529,-0.023529,0.007843,0.007843,1.960784,1.960784,-1.960784,3
5.647059,4.235294,50.823529,-0.023529,0.007843,0.007843,1.960784,1.960784,-1.960784,3
5.647059,4.235294,50.823529,-0.039216,0.007843,-0.007843,1.960784,1.960784,-1.960784,3
5.647059,4.235294,50.823529,-0.039216,0.007843,-0.007843,1.960784,1.960784,-1.960784,3
5.647059,4.235294,50.823529,-0.039216,0.007843,0.007843,1.960784,1.960784,-1.960784,3
5.647059,4.235294,50.823529,-0.039216,0.007843,0.007843,1.960784,1.960784,-1.960784,3
5.647059,4.235294,50.823529,-0.039216,0.007843,0.007843,1.960784,1.960784,-1.960784,3
5.647059,4.235294,50.823529,-0.023529,0.007843,0.007843,1.960784,1.960784,-1.960784,3
5.647059,4.235294,50.823529,-0.039216,0.023529,0.007843,1.960784,1.960784,-1.960784,3
5.647059,4.235294,50.823529,-0.039216,0.007843,0.007843,1.960784,1.960784,-1.960784,3
5.647059,4.235294,50.823529,-0.039216,0.007843,0.007843,1.960784,1.960784,-1.960784,3
5.647059,4.235294,50.823529,-0.039216,0.007843,0.007843,1.960784,1.960784,-1.960784,3
5.647059,4.235294,50.823529,-0.039216,0.007843,0.007843,1.960784,1.960784,-1.960784,3
5.647059,4.235294,50.823529,-0.023529,0.007843,0.007843,1.960784,1.960784,-1.960784,3
5.647059,4.235294,50.823529,-0.023529,0.007843,0.007843,1.960784,1.960784,-1.960784,3
5.647059,4.235294,50.823529,-0.039216,0.007843,0.007843,1.960784,1.960784,-1.960784,3
5.647059,4.235294,50.823529,-0.039216,0.007843,-0.007843,1.960784,1.960784,-1.960784,3
5.647059,4.235294,50.823529,-0.039216,0.023529,-0.007843,1.960784,1.960784,-1.960784,3
5.647059,4.235294,50.823529,-0.023529,0.007843,-0.007843,1.960784,1.960784,-1.960784,3
5.647059,4.235294,50.823529,-0.023529,0.007843,0.007843,1.960784,1.960784,-1.960784,3
5.647059,4.235294,50.823529,-0.039216,0.007843,0.007843,1.960784,1.960784,-1.960784,3
5.647059,4.235294,50.823529,-0.023529,0.007843,0.007843,1.960784,1.960784,-1.960784,3
5.647059,4.235294,50.823529,-0.039216,0.007843,-0.007843,1.960784,1.960784,-1.960784,3
5.647059,4.235294,50.823529,-0.023529,0.007843,-0.007843,1.960784,1.960784,-1.960784,3
5.647059,4.235294,50.823529,-0.039216,0.007843,-0.007843,1.960784,1.960784,-1.960784,3
5.647059,4.235294,50.823529,-0.039216,0.007843,0.007843,1.960784,1.960784,-1.960784,3
5.647059,4.235294,50.823529,-0.039216,0.007843,-0.007843,1.960784,1.960784,-1.960784,3
5.647059,4.235294,50.823529,-0.023529,0.007843,0.007843,1.960784,1.960784,-1.960784,3
5.647059,4.235294,50.823529,-0.023529,0.007843,0.007843,1.960784,1.960784,-1.960784,3
5.647059,4.235294,50.823529,-0.039216,0.023529,0.007843,1.960784,1.960784,-1.960784,3
5.647059,4.235294,50.823529,-0.023529,0.007843,0.007843,1.960784,1.960784,-1.960784,3
5.647059,4.235294,50.823529,-0.039216,0.007843,0.007843,1.960784,1.960784,-1.960784,3
5.647059,4.235294,50.823529,-0.039216,0.007843,0.007843,1.960784,1.960784,-1.960784,3
5.647059,4.235294,50.823529,-0.023529,0.023529,0.007843,1.960784,1.960784,-1.960784,3
5.647059,4.235294,50.823529,-0.039216,0.023529,-0.007843,1.960784,1.960784,-1.960784,3
5.647059,4.235294,50.823529,-0.039216,0.007843,0.007843,1.960784,1.960784,-1.960784,3
5.647059,4.235294,50.823529,-0.039216,0.023529,-0.007843,1.960784,1.960784,-1.960784,3
5.647059,4.235294,50.823529,-0.023529,0.007843,0.007843,1.960784,1.960784,-1.960784,3
5.647059,4.235294,50.823529,-0.039216,0.007843,0.007843,1.960784,1.960784,-1.960784,3
5.647059,4.235294,50.823529,-0.039216,0.007843,0.007843,1.960784,1.960784,-1.960784,3
5.647059,4.235294,50.823529,-0.023529,0.023529,-0.007843,1.960784,1.960784,-1.960784,3
5.647059,4.235294,50.823529,-0.039216,0.007843,0.007843,1.960784,1.960784,-1.960784,3
5.647059,4.235294,50.823529,-0.023529,0.007843,-0.007843,1.960784,1.960784,-1.960784,3
5.647059,4.235294,50.823529,-0.039216,0.007843,0.007843,1.960784,1.960784,-1.960784,3
5.647059,4.235294,50.823529,-0.023529,0.007843,-0.007843,1.960784,1.960784,-1.960784,3
5.647059,4.235294,50.823529,-0.039216,0.007843,0.007843,1.960784,1.960784,-1.960784,3
5.647059,4.235294,50.823529,-0.039216,0.007843,0.007843,1.960784,1.960784,-1.960784,3
5.647059,4.235294,50.823529,-0.039216,0.007843,-0.007843,1.960784,1.960784,-1.960784,3
5.647059,4.235294,50.823529,-0.039216,0.007843,0.007843,1.960784,1.960784,-1.960784,3
5.647059,4.235294,50.823529,-0.023529,0.007843,-0.007843,1.960784,1.960784,-1.960784,3
5.647059,4.235294,50.823529,-0.039216,0.007843,0.007843,1.960784,1.960784,-1.960784,3
5.647059,4.235294,50.823529,-0.039216,0.007843,0.007843,1.960784,1.960784,-1.960784,3
5.647059,4.235294,50.823529,-0.039216,0.023529,0.007843,1.960784,1.960784,-1.960784,3
5.647059,4.235294,50.823529,-0.039216,0.007843,0.007843,1.960784,1.960784,-1.960784,3
5.647059,4.235294,50.823529,-0.039216,0.007843,0.007843,1.960784,1.960784,-1.960784,3
5.647059,4.235294,50.823529,-0.039216,0.007843,0.007843,1.960784,1.960784,-1.960784,3
5.647059,4.235294,50.823529,-0.023529,0.007843,0.007843,1.960784,1.960784,-1.960784,3
5.647059,4.235294,50.823529,-0.039216,0.007843,0.007843,1.960784,1.960784,-1.960784,3
5.647059,4.235294,50.823529,-0.039216,0.007843,-0.007843,1.960784,1.960784,-1.960784,3
5.647059,4.235294,50.823529,-0.039216,0.007843,0.007843,1.960784,1.960784,-1.960784,3
5.647059,4.235294,50.823529,-0.039216,0.007843,0.007843,1.960784,1.960784,-1.960784,3
5.647059,4.235294,50.823529,-0.039216,0.007843,0.007843,1.960784,1.960784,-1.960784,3
5.647059,4.235294,50.823529,-0.039216,0.007843,0.007843,1.960784,1.960784,-1.960784,3
5.647059,4.235294,50.823529,-0.023529,0.007843,-0.007843,1.960784,1.960784,-1.960784,3
5.647059,4.235294,50.823529,-0.039216,0.007843,0.007843,1.960784,1.960784,-1.960784,3
5.647059,4.235294,50.823529,-0.039216,0.007843,0.007843,1.960784,1.960784,-1.960784,3
5.647059,4.235294,50.823529,-0.023529,0.007843,0.007843,1.960784,1.960784,-1.960784,3
5.647059,4.235294,50.823529,-0.039216,0.007843,0.007843,1.960784,1.960784,-1.960784,3
5.647059,4.235294,50.823529,-0.039216,0.023529,0.007843,1.960784,1.960784,-1.960784,3
5.647059,4.235294,50.823529,-0.039216,0.023529,0.007843,1.960784,1.960784,-1.960784,3
5.647059,4.235294,50.823529,-0.039216,0.023529,0.007843,1.960784,1.960784,-1.960784,3
5.647059,4.235294,50.823529,-0.023529,0.007843,-0.007843,1.960784,1.960784,-1.960784,3
5.647059,4.235294,50.823529,-0.039216,0.007843,-0.007843,1.960784,1.960784,-1.960784,3
5.647059,4.235294,50.823529,-0.023529,0.007843,-0.007843,1.960784,1.960784,-1.960784,3
5.647059,4.235294,50.823529,-0.039216,0.007843,0.007843,1.960784,1.960784,-1.960784,3
5.647059,4.235294,50.823529,-0.023529,0.007843,0.007843,1.960784,1.960784,-1.960784,3
5.647059,4.235294,50.823529,-0.039216,0.007843,0.007843,1.960784,1.960784,-1.960784,3
5.647059,4.235294,50.823529,-0.039216,0.007843,0.007843,1.960784,1.960784,-1.960784,3
5.647059,4.235294,50.823529,-0.039216,0.007843,-0.007843,1.960784,1.960784,-1.960784,3
5.647059,4.235294,50.823529,-0.039216,0.007843,0.007843,1.960784,1.960784,-1.960784,3
5.647059,4.235294,50.823529,-0.023529,0.023529,-0.007843,1.960784,1.960784,-1.960784,3
5.647059,4.235294,50.823529,-0.039216,0.007843,0.007843,1.960784,1.960784,-1.960784,3
5.647059,4.235294,50.823529,-0.023529,0.023529,0.007843,1.960784,1.960784,-1.960784,3
5.647059,4.235294,50.823529,-0.039216,0.007843,0.007843,1.960784,1.960784,-1.960784,3
5.647059,4.235294,50.823529,-0.039216,0.007843,0.007843,1.960784,1.960784,-1.960784,3
5.647059,4.235294,50.823529,-0.039216,0.007843,-0.007843,1.960784,1.960784,-1.960784,3
5.647059,4.235294,50.823529,-0.039216,0.007843,0.007843,1.960784,1.960784,-1.960784,3
5.647059,4.235294,50.823529,-0.023529,0.007843,-0.007843,1.960784,1.960784,-1.960784,3
5.647059,4.235294,50.823529,-0.039216,0.007843,0.007843,1.960784,1.960784,-1.960784,3
5.647059,4.235294,50.823529,-0.023529,0.007843,0.007843,1.960784,1.960784,-1.960784,3
5.647059,4.235294,50.823529,-0.039216,0.007843,0.007843,1.960784,1.960784,-1.960784,3
5.647059,4.235294,50.823529,-0.039216,0.007843,0.007843,1.960784,1.960784,-1.960784,3
5.647059,4.235294,50.823529,-0.023529,0.007843,-0.007843,1.960784,1.960784,-1.960784,3
5.647059,4.235294,50.823529,-0.023529,0.007843,0.007843,1.960784,1.960784,-1.960784,3
5.647059,4.235294,50.823529,-0.039216,0.007843,-0.007843,1.960784,1.960784,-1.960784,3
5.647059,4.235294,50.823529,-0.039216,0.023529,0.007843,1.960784,1.960784,-1.960784,3
5.647059,4.235294,50.823529,-0.039216,0.007843,0.007843,1.960784,1.960784,-1.960784,3
5.647059,4.235294,50.823529,-0.039216,0.007843,-0.007843,1.960784,1.960784,-1.960784,3
5.647059,4.235294,50.823529,-0.039216,0.007843,0.007843,1.960784,1.960784,-1.960784,3
5.647059,4.235294,50.823529,-0.039216,0.007843,0.007843,1.960784,1.960784,-1.960784,3
5.647059,4.235294,50.823529,-0.039216,0.007843,-0.007843,1.960784,1.960784,-1.960784,3
5.647059,4.235294,50.823529,-0.039216,0.007843,0.007843,1.960784,1.960784,-1.960784,3
5.647059,4.235294,50.823529,-0.039216,0.007843,0.007843,1.960784,1.960784,-1.960784,3
5.647059,4.235294,50.823529,-0.039216,0.007843,0.007843,1.960784,1.960784,-1.960784,3
5.647059,4.235294,50.823529,-0.039216,0.007843,-0.007843,1.960784,1.960784,-1.960784,3
5.647059,4.235294,50.823529,-0.039216,0.007843,0.007843,1.960784,1.960784,-1.960784,3
5.647059,4.235294,50.823529,-0.039216,0.007843,-0.007843,1.960784,1.960784,-1.960784,3
5.647059,4.235294,50.823529,-0.023529,0.007843,0.007843,1.960784,1.960784,-1.960784,3
5.647059,4.235294,50.823529,-0.039216,0.007843,-0.007843,1.960784,1.960784,-1.960784,3
5.647059,4.235294,50.823529,-0.039216,0.007843,-0.007843,1.960784,1.960784,-1.960784,3
5.647059,4.235294,50.823529,-0.023529,0.007843,0.007843,1.960784,1.960784,-1.960784,3
5.647059,4.235294,50.823529,-0.039216,0.007843,0.007843,1.960784,1.960784,-1.960784,3
5.647059,4.235294,50.823529,-0.023529,0.007843,-0.007843,1.960784,1.960784,-1.960784,3
5.647059,4.235294,50.823529,-0.039216,0.007843,0.007843,1.960784,1.960784,-1.960784,3
5.647059,4.235294,50.823529,-0.039216,0.007843,-0.007843,1.960784,1.960784,-1.960784,3
5.647059,4.235294,50.823529,-0.023529,0.007843,0.007843,1.960784,1.960784,-1.960784,3
5.647059,4.235294,50.823529,-0.039216,0.007843,-0.007843,1.960784,1.960784,-1.960784,3
5.647059,4.235294,50.823529,-0.039216,0.007843,-0.007843,1.960784,1.960784,-1.960784,3
5.647059,4.235294,50.823529,-0.039216,0.007843,0.007843,1.960784,1.960784,-1.960784,3
5.647059,4.235294,50.823529,-0.039216,0.007843,0.007843,1.960784,1.960784,-1.960784,3
5.647059,4.235294,50.823529,-0.039216,0.007843,0.007843,1.960784,1.960784,-1.960784,3
5.647059,4.235294,50.823529,-0.039216,0.007843,0.007843,1.960784,1.960784,-1.960784,3
5.647059,4.235294,50.823529,-0.039216,0.007843,0.007843,1.960784,1.960784,-1.960784,3
5.647059,4.235294,50.823529,-0.039216,0.007843,0.007843,1.960784,1.960784,-1.960784,3
5.647059,4.235294,50.823529,-0.023529,0.007843,-0.007843,1.960784,1.960784,-1.960784,3
5.647059,4.235294,50.823529,-0.039216,0.007843,0.007843,1.960784,1.960784,-1.960784,3
5.647059,4.235294,50.823529,-0.039216,0.023529,0.007843,1.960784,1.960784,-1.960784,3
5.647059,4.235294,50.823529,-0.039216,0.007843,0.007843,1.960784,1.960784,-1.960784,3
5.647059,4.235294,50.823529,-0.039216,0.007843,0.007843,1.960784,1.960784,-1.960784,3
5.647059,4.235294,50.823529,-0.039216,0.007843,0.007843,1.960784,1.960784,-1.960784,3
5.647059,4.235294,50.823529,-0.039216,0.007843,0.007843,1.960784,1.960784,-1.960784,3
5.647059,4.235294,50.823529,-0.023529,0.007843,-0.007843,1.960784,1.960784,-1.960784,3
5.647059,4.235294,50.823529,-0.039216,0.007843,0.007843,1.960784,1.960784,-1.960784,3
5.647059,4.235294,50.823529,-0.023529,0.023529,-0.007843,1.960784,1.960784,-1.960784,3
5.647059,4.235294,50.823529,-0.023529,0.007843,0.007843,1.960784,1.960784,-1.960784,3
5.647059,4.235294,50.823529,-0.039216,0.023529,0.007843,1.960784,1.960784,-1.960784,3
5.647059,4.235294,50.823529,-0.023529,0.007843,-0.007843,1.960784,1.960784,-1.960784,3
5.647059,4.235294,50.823529,-0.023529,0.007843,-0.007843,1.960784,1.960784,-1.960784,3
5.647059,4.235294,50.823529,-0.039216,0.007843,0.007843,1.960784,1.960784,-1.960784,3
5.647059,4.235294,50.823529,-0.023529,0.007843,0.007843,1.960784,1.960784,-1.960784,3
5.647059,4.235294,50.823529,-0.039216,0.007843,0.007843,1.960784,1.960784,-1.960784,3
5.647059,4.235294,50.823529,-0.039216,0.007843,0.007843,1.960784,1.960784,-1.960784,3
5.647059,4.235294,50.823529,-0.039216,0.007843,0.007843,1.960784,1.960784,-1.960784,3
5.647059,4.235294,49.411765,-0.039216,0.007843,0.007843,1.960784,1.960784,-1.960784,3
5.647059,4.235294,49.411765,-0.023529,0.007843,0.007843,1.960784,1.960784,-1.960784,3
5.647059,4.235294,49.411765,-0.023529,0.023529,0.007843,1.960784,1.960784,-1.960784,3
5.647059,4.235294,49.411765,-0.039216,0.007843,0.007843,1.960784,1.960784,-1.960784,3
5.647059,4.235294,49.411765,-0.039216,0.007843,-0.007843,1.960784,1.960784,-1.960784,3
5.647059,4.235294,49.411765,-0.023529,0.007843,0.007843,1.960784,1.960784,-1.960784,3
5.647059,4.235294,49.411765,-0.039216,0.007843,-0.007843,1.960784,1.960784,-1.960784,3
5.647059,4.235294,49.411765,-0.039216,0.007843,0.007843,1.960784,1.960784,-1.960784,3
5.647059,4.235294,49.411765,-0.039216,0.007843,0.007843,1.960784,1.960784,-1.960784,3
5.647059,4.235294,49.411765,-0.039216,0.007843,-0.007843,1.960784,1.960784,-1.960784,3
5.647059,4.235294,49.411765,-0.039216,0.007843,0.007843,1.960784,1.960784,-1.960784,3
5.647059,4.235294,49.411765,-0.039216,0.007843,0.007843,1.960784,1.960784,-1.960784,3
5.647059,4.235294,49.411765,-0.039216,0.007843,-0.007843,1.960784,1.960784,-1.960784,3
5.647059,4.235294,49.411765,-0.039216,0.007843,0.007843,1.960784,1.960784,-1.960784,3
5.647059,4.235294,49.411765,-0.039216,0.007843,-0.007843,1.960784,1.960784,-1.960784,3
5.647059,4.235294,49.411765,-0.039216,0.023529,0.007843,1.960784,1.960784,-1.960784,3
5.647059,4.235294,49.411765,-0.039216,0.007843,0.007843,1.960784,1.960784,-1.960784,3
5.647059,4.235294,49.411765,-0.039216,0.007843,-0.007843,1.960784,1.960784,-1.960784,3
5.647059,4.235294,49.411765,-0.023529,0.007843,-0.007843,1.960784,1.960784,-1.960784,3
5.647059,4.235294,49.411765,-0.039216,0.007843,0.007843,1.960784,1.960784,-1.960784,3
5.647059,4.235294,49.411765,-0.023529,0.007843,0.007843,1.960784,1.960784,-1.960784,3
5.647059,4.235294,49.411765,-0.039216,0.007843,-0.007843,1.960784,1.960784,-1.960784,3
5.647059,4.235294,49.411765,-0.039216,0.007843,0.007843,1.960784,1.960784,-1.960784,3
5.647059,4.235294,49.411765,-0.039216,0.007843,-0.007843,1.960784,1.960784,-1.960784,3
5.647059,4.235294,49.411765,-0.023529,0.007843,0.007843,1.960784,1.960784,-1.960784,3
5.647059,4.235294,49.411765,-0.039216,0.007843,0.007843,1.960784,1.960784,-1.960784,3
5.647059,4.235294,49.411765,-0.039216,0.007843,0.007843,1.960784,1.960784,-1.960784,3
5.647059,4.235294,49.411765,-0.023529,0.007843,-0.007843,1.960784,1.960784,-1.960784,3
5.647059,4.235294,49.411765,-0.039216,0.023529,0.007843,1.960784,1.960784,-1.960784,3
5.647059,4.235294,49.411765,-0.039216,0.007843,-0.007843,1.960784,1.960784,-1.960784,3
5.647059,4.235294,49.411765,-0.023529,0.007843,0.007843,1.960784,1.960784,-1.960784,3
5.647059,4.235294,49.411765,-0.023529,0.007843,0.007843,1.960784,1.960784,-1.960784,3
5.647059,4.235294,49.411765,-0.039216,0.007843,0.007843,1.960784,1.960784,-1.960784,3
5.647059,4.235294,49.411765,-0.039216,0.007843,0.007843,1.960784,1.960784,-1.960784,3
5.647059,4.235294,49.411765,-0.039216,0.007843,0.007843,1.960784,1.960784,-1.960784,3
5.647059,4.235294,49.411765,-0.023529,0.007843,-0.007843,1.960784,1.960784,-1.960784,3
5.647059,4.235294,49.411765,-0.039216,0.007843,0.007843,1.960784,1.960784,-1.960784,3
5.647059,4.235294,49.411765,-0.039216,0.007843,-0.007843,1.960784,1.960784,-1.960784,3
5.647059,4.235294,49.411765,-0.039216,0.007843,-0.007843,1.960784,1.960784,-1.960784,3
5.647059,4.235294,49.411765,-0.023529,0.007843,-0.007843,1.960784,1.960784,-1.960784,3
5.647059,4.235294,49.411765,-0.039216,0.007843,0.007843,1.960784,1.960784,-1.960784,3
5.647059,4.235294,49.411765,-0.039216,0.007843,0.007843,1.960784,1.960784,-1.960784,3
5.647059,4.235294,49.411765,-0.023529,0.007843,0.007843,1.960784,1.960784,-1.960784,3
5.647059,4.235294,49.411765,-0.039216,0.007843,0.007843,1.960784,1.960784,-1.960784,3
5.647059,4.235294,49.411765,-0.039216,0.007843,0.007843,1.960784,1.960784,-1.960784,3
5.647059,4.235294,49.411765,-0.039216,0.007843,0.007843,1.960784,1.960784,-1.960784,3
5.647059,4.235294,49.411765,-0.039216,0.007843,0.007843,1.960784,1.960784,-1.960784,3
5.647059,4.235294,49.411765,-0.039216,0.007843,-0.007843,1.960784,1.960784,-1.960784,3
5.647059,4.235294,49.411765,-0.039216,0.007843,-0.007843,1.960784,1.960784,-1.960784,3
5.647059,4.235294,49.411765,-0.039216,0.007843,-0.007843,1.960784,1.960784,-1.960784,3
5.647059,4.235294,49.411765,-0.039216,0.007843,-0.007843,1.960784,1.960784,-1.960784,3
5.647059,4.235294,49.411765,-0.039216,0.007843,-0.007843,1.960784,1.960784,-1.960784,3
5.647059,4.235294,49.411765,-0.023529,0.007843,-0.007843,1.960784,1.960784,-1.960784,3
5.647059,4.235294,49.411765,-0.039216,0.007843,-0.007843,1.960784,1.960784,-1.960784,3
5.647059,4.235294,49.411765,-0.039216,0.007843,0.007843,1.960784,1.960784,-1.960784,3
5.647059,4.235294,49.411765,-0.039216,0.007843,0.007843,1.960784,1.960784,-1.960784,3
5.647059,4.235294,49.411765,-0.039216,0.007843,0.007843,1.960784,1.960784,-1.960784,3
5.647059,4.235294,49.411765,-0.023529,0.007843,-0.007843,1.960784,1.960784,-1.960784,3
5.647059,4.235294,49.411765,-0.039216,0.007843,0.007843,1.960784,1.960784,-1.960784,3
5.647059,4.235294,49.411765,-0.039216,0.007843,0.007843,1.960784,1.960784,-1.960784,3
5.647059,4.235294,49.411765,-0.023529,0.007843,0.007843,1.960784,1.960784,-1.960784,3
5.647059,4.235294,49.411765,-0.023529,0.007843,0.007843,1.960784,1.960784,-1.960784,3
5.647059,4.235294,49.411765,-0.039216,0.007843,0.007843,1.960784,1.960784,-1.960784,3
5.647059,4.235294,49.411765,-0.023529,0.007843,0.007843,1.960784,1.960784,-1.960784,3
5.647059,4.235294,49.411765,-0.039216,0.007843,0.007843,1.960784,1.960784,-1.960784,3
5.647059,4.235294,49.411765,-0.039216,0.007843,0.007843,1.960784,1.960784,-1.960784,3
5.647059,4.235294,49.411765,-0.039216,0.007843,0.007843,1.960784,1.960784,-1.960784,3
5.647059,4.235294,49.411765,-0.039216,0.007843,0.007843,1.960784,1.960784,-1.960784,3
5.647059,4.235294,49.411765,-0.039216,0.007843,0.007843,1.960784,1.960784,-1.960784,3
5.647059,4.235294,49.411765,-0.039216,0.007843,0.007843,1.960784,1.960784,-1.960784,3
5.647059,4.235294,49.411765,-0.039216,0.007843,-0.007843,1.960784,1.960784,-1.960784,3
5.647059,4.235294,49.411765,-0.023529,0.007843,0.007843,1.960784,1.960784,-1.960784,3
5.647059,4.235294,49.411765,-0.039216,0.007843,0.007843,1.960784,1.960784,-1.960784,3
5.647059,4.235294,49.411765,-0.039216,0.007843,-0.007843,1.960784,1.960784,-1.960784,3
5.647059,4.235294,49.411765,-0.039216,0.007843,0.007843,1.960784,1.960784,-1.960784,3
5.647059,4.235294,49.411765,-0.023529,0.007843,0.007843,1.960784,1.960784,-1.960784,3
5.647059,4.235294,49.411765,-0.023529,0.007843,0.007843,1.960784,1.960784,-1.960784,3
5.647059,4.235294,49.411765,-0.039216,0.007843,-0.007843,1.960784,1.960784,-1.960784,3
5.647059,4.235294,49.411765,-0.039216,0.007843,-0.007843,1.960784,1.960784,-1.960784,3
5.647059,4.235294,49.411765,-0.039216,0.007843,-0.007843,1.960784,1.960784,-1.960784,3
5.647059,4.235294,49.411765,-0.039216,0.007843,0.007843,1.960784,1.960784,-1.960784,3
5.647059,4.235294,49.411765,-0.039216,0.007843,0.007843,1.960784,1.960784,-1.960784,3
5.647059,4.235294,49.411765,-0.039216,0.023529,0.007843,1.960784,1.960784,-1.960784,3
5.647059,4.235294,49.411765,-0.023529,0.007843,0.007843,1.960784,1.960784,-1.960784,3
5.647059,4.235294,49.411765,-0.039216,0.007843,-0.007843,1.960784,1.960784,-1.960784,3
5.647059,4.235294,49.411765,-0.039216,0.007843,0.007843,1.960784,1.960784,-1.960784,3
5.647059,4.235294,49.411765,-0.023529,0.007843,-0.007843,1.960784,1.960784,-1.960784,3
5.647059,4.235294,49.411765,-0.023529,0.007843,0.007843,1.960784,1.960784,-1.960784,3
5.647059,4.235294,49.411765,-0.039216,0.007843,0.007843,1.960784,1.960784,-1.960784,3
5.647059,4.235294,49.411765,-0.039216,0.007843,-0.007843,1.960784,1.960784,-1.960784,3
5.647059,4.235294,49.411765,-0.023529,0.007843,-0.007843,1.960784,1.960784,-1.960784,3
5.647059,4.235294,49.411765,-0.039216,0.007843,-0.007843,1.960784,1.960784,-1.960784,3
5.647059,4.235294,49.411765,-0.023529,0.007843,-0.007843,1.960784,1.960784,-1.960784,3
5.647059,4.235294,49.411765,-0.039216,0.007843,0.007843,1.960784,1.960784,-1.960784,3
5.647059,4.235294,49.411765,-0.023529,0.007843,0.007843,1.960784,1.960784,-1.960784,3
5.647059,4.235294,49.411765,-0.039216,0.023529,-0.007843,1.960784,1.960784,-1.960784,3
5.647059,4.235294,49.411765,-0.039216,0.023529,-0.007843,1.960784,1.960784,-1.960784,3
5.647059,4.235294,49.411765,-0.023529,0.007843,0.007843,1.960784,1.960784,-1.960784,3
5.647059,4.235294,49.411765,-0.039216,0.007843,0.007843,1.960784,1.960784,-1.960784,3
5.647059,4.235294,49.411765,-0.023529,0.007843,-0.007843,1.960784,1.960784,-1.960784,3
5.647059,4.235294,49.411765,-0.039216,0.007843,-0.007843,1.960784,1.960784,-1.960784,3
5.647059,4.235294,49.411765,-0.039216,0.007843,0.007843,1.960784,1.960784,-1.960784,3
5.647059,4.235294,49.411765,-0.039216,0.007843,0.007843,1.960784,1.960784,-1.960784,3
5.647059,4.235294,49.411765,-0.023529,0.007843,0.007843,1.960784,1.960784,-1.960784,3
5.647059,4.235294,49.411765,-0.023529,0.007843,-0.007843,1.960784,1.960784,-1.960784,3
5.647059,4.235294,49.411765,-0.039216,0.007843,0.007843,1.960784,1.960784,-1.960784,3
5.647059,4.235294,49.411765,-0.023529,0.023529,0.007843,1.960784,1.960784,-1.960784,3
5.647059,4.235294,49.411765,-0.039216,0.007843,0.007843,1.960784,1.960784,-1.960784,3
5.647059,4.235294,49.411765,-0.039216,0.007843,-0.007843,1.960784,1.960784,-1.960784,3
5.647059,4.235294,49.411765,-0.023529,0.007843,0.007843,1.960784,1.960784,-1.960784,3
5.647059,4.235294,49.411765,-0.039216,0.007843,-0.007843,1.960784,1.960784,-1.960784,3
5.647059,4.235294,49.411765,-0.023529,0.007843,-0.007843,1.960784,1.960784,-1.960784,3
5.647059,4.235294,49.411765,-0.039216,0.007843,-0.007843,1.960784,1.960784,-1.960784,3
5.647059,4.235294,49.411765,-0.039216,0.023529,-0.007843,1.960784,1.960784,-1.960784,3
5.647059,4.235294,49.411765,-0.039216,0.007843,0.007843,1.960784,1.960784,-1.960784,3
5.647059,4.235294,49.411765,-0.039216,0.007843,0.007843,1.960784,1.960784,-1.960784,3
5.647059,4.235294,49.411765,-0.039216,0.007843,-0.007843,1.960784,1.960784,-1.960784,3
5.647059,4.235294,49.411765,-0.039216,0.007843,0.007843,1.960784,1.960784,-1.960784,3
5.647059,4.235294,49.411765,-0.039216,0.007843,0.007843,1.960784,1.960784,-1.960784,3
5.647059,4.235294,49.411765,-0.039216,0.007843,0.007843,1.960784,1.960784,-1.960784,3
5.647059,4.235294,49.411765,-0.039216,0.007843,0.007843,1.960784,1.960784,-1.960784,3
5.647059,4.235294,49.411765,-0.039216,0.023529,0.007843,1.960784,1.960784,-1.960784,3
5.647059,4.235294,49.411765,-0.039216,0.007843,-0.007843,1.960784,1.960784,-1.960784,3
5.647059,4.235294,49.411765,-0.023529,0.007843,-0.007843,1.960784,1.960784,-1.960784,3
5.647059,4.235294,49.411765,-0.039216,0.007843,-0.007843,1.960784,1.960784,-1.960784,3
5.647059,4.235294,49.411765,-0.039216,0.007843,0.007843,1.960784,1.960784,-1.960784,3
5.647059,4.235294,49.411765,-0.039216,0.007843,0.007843,1.960784,1.960784,-1.960784,3
5.647059,4.235294,49.411765,-0.023529,0.007843,0.007843,1.960784,1.960784,-1.960784,3
5.647059,4.235294,49.411765,-0.023529,0.007843,0.007843,1.960784,1.960784,-1.960784,3
5.647059,4.235294,49.411765,-0.039216,0.007843,0.007843,1.960784,1.960784,-1.960784,3
5.647059,4.235294,49.411765,-0.039216,0.007843,0.007843,1.960784,1.960784,-1.960784,3
5.647059,4.235294,49.411765,-0.039216,0.007843,0.007843,1.960784,1.960784,-1.960784,3
5.647059,4.235294,49.411765,-0.039216,0.007843,0.007843,1.960784,1.960784,-1.960784,3
5.647059,4.235294,49.411765,-0.039216,0.007843,-0.007843,1.960784,1.960784,-1.960784,3
5.647059,4.235294,49.411765,-0.039216,0.007843,0.007843,1.960784,1.960784,-1.960784,3
5.647059,4.235294,49.411765,-0.039216,0.007843,-0.007843,1.960784,1.960784,-1.960784,3
5.647059,4.235294,49.411765,-0.039216,0.007843,0.007843,1.960784,1.960784,-1.960784,3
5.647059,4.235294,49.411765,-0.039216,0.007843,0.007843,1.960784,1.960784,-1.960784,3
5.647059,4.235294,49.411765,-0.039216,0.007843,0.007843,1.960784,1.960784,-1.960784,3
5.647059,4.235294,49.411765,-0.039216,0.007843,0.007843,1.960784,1.960784,-1.960784,3
5.647059,4.235294,49.411765,-0.039216,0.007843,0.007843,1.960784,1.960784,-1.960784,3
5.647059,4.235294,49.411765,-0.039216,0.007843,-0.007843,1.960784,1.960784,-1.960784,3
5.647059,4.235294,49.411765,-0.023529,0.007843,-0.007843,1.960784,1.960784,-1.960784,3
5.647059,4.235294,49.411765,-0.039216,0.007843,0.007843,1.960784,1.960784,-1.960784,3
5.647059,4.235294,49.411765,-0.039216,0.023529,0.007843,1.960784,1.960784,-1.960784,3
5.647059,4.235294,49.411765,-0.039216,0.007843,0.007843,1.960784,1.960784,-1.960784,3
5.647059,4.235294,49.411765,-0.039216,0.007843,0.007843,1.960784,1.960784,-1.960784,3
5.647059,4.235294,49.411765,-0.039216,0.007843,-0.007843,1.960784,1.960784,-1.960784,3
5.647059,4.235294,49.411765,-0.039216,0.007843,0.007843,1.960784,1.960784,-1.960784,3
5.647059,4.235294,49.411765,-0.039216,0.007843,0.007843,1.960784,1.960784,-1.960784,3
5.647059,4.235294,49.411765,-0.039216,0.007843,0.007843,1.960784,1.960784,-1.960784,3
5.647059,4.235294,49.411765,-0.039216,0.007843,0.007843,1.960784,1.960784,-1.960784,3
5.647059,4.235294,49.411765,-0.039216,0.007843,-0.007843,1.960784,1.960784,-1.960784,3
5.647059,4.235294,49.411765,-0.023529,0.007843,-0.007843,1.960784,1.960784,-1.960784,3
5.647059,4.235294,49.411765,-0.039216,0.007843,0.007843,1.960784,1.960784,-1.960784,3
5.647059,4.235294,49.411765,-0.039216,0.007843,-0.007843,1.960784,1.960784,-1.960784,3
5.647059,4.235294,49.411765,-0.039216,0.007843,-0.007843,1.960784,1.960784,-1.960784,3
5.647059,4.235294,49.411765,-0.039216,0.007843,0.007843,1.960784,1.960784,-1.960784,3
5.647059,4.235294,49.411765,-0.039216,0.007843,0.007843,1.960784,1.960784,-1.960784,3
5.647059,4.235294,49.411765,-0.039216,0.007843,0.007843,1.960784,1.960784,-1.960784,3
5.647059,4.235294,49.411765,-0.039216,0.007843,0.007843,1.960784,1.960784,-1.960784,3
5.647059,4.235294,49.411765,-0.039216,0.007843,0.007843,1.960784,1.960784,-1.960784,3
5.647059,4.235294,49.411765,-0.039216,0.007843,-0.007843,1.960784,1.960784,-1.960784,3
5.647059,4.235294,49.411765,-0.039216,0.007843,0.007843,1.960784,1.960784,-1.960784,3
5.647059,4.235294,49.411765,-0.039216,0.007843,0.007843,1.960784,1.960784,-1.960784,3
5.647059,4.235294,49.411765,-0.039216,0.007843,0.007843,1.960784,1.960784,-1.960784,3
5.647059,4.235294,49.411765,-0.039216,0.007843,0.007843,1.960784,1.960784,-1.960784,3
5.647059,4.235294,49.411765,-0.023529,0.007843,-0.007843,1.960784,1.960784,-1.960784,3
5.647059,4.235294,49.411765,-0.039216,0.007843,0.007843,1.960784,1.960784,-1.960784,3
5.647059,4.235294,49.411765,-0.023529,0.007843,-0.007843,1.960784,1.960784,-1.960784,3
5.647059,4.235294,49.411765,-0.039216,0.007843,0.007843,1.960784,1.960784,-1.960784,3
5.647059,4.235294,49.411765,-0.039216,0.007843,0.007843,1.960784,1.960784,-1.960784,3
5.647059,4.235294,49.411765,-0.039216,0.007843,0.007843,1.960784,1.960784,-1.960784,3
5.647059,4.235294,49.411765,-0.023529,0.007843,0.007843,1.960784,1.960784,-1.960784,3
5.647059,4.235294,49.411765,-0.023529,0.007843,0.007843,1.960784,1.960784,-1.960784,3
5.647059,4.235294,49.411765,-0.039216,0.007843,0.007843,1.960784,1.960784,-1.960784,3
5.647059,4.235294,49.411765,-0.039216,0.007843,0.007843,1.960784,1.960784,-1.960784,3
5.647059,4.235294,49.411765,-0.039216,0.007843,0.007843,1.960784,1.960784,-1.960784,3
5.647059,4.235294,49.411765,-0.023529,0.007843,0.007843,1.960784,1.960784,-1.960784,3
5.647059,4.235294,49.411765,-0.039216,0.007843,0.007843,1.960784,1.960784,-1.960784,3
5.647059,4.235294,49.411765,-0.039216,0.007843,0.007843,1.960784,1.960784,-1.960784,3
5.647059,4.235294,49.411765,-0.039216,0.007843,0.007843,1.960784,1.960784,-1.960784,3
5.647059,4.235294,49.411765,-0.023529,0.007843,0.007843,1.960784,1.960784,-1.960784,3
5.647059,4.235294,49.411765,-0.039216,0.007843,0.007843,1.960784,1.960784,-1.960784,3
5.647059,4.235294,49.411765,-0.023529,0.007843,-0.007843,1.960784,1.960784,-1.960784,3
5.647059,4.235294,49.411765,-0.023529,0.007843,-0.007843,1.960784,1.960784,-1.960784,3
5.647059,4.235294,49.411765,-0.039216,0.007843,-0.007843,1.960784,1.960784,-1.960784,3
5.647059,4.235294,49.411765,-0.039216,0.007843,0.007843,1.960784,1.960784,-1.960784,3
5.647059,4.235294,49.411765,-0.039216,0.007843,0.007843,1.960784,1.960784,-1.960784,3
5.647059,4.235294,49.411765,-0.039216,0.007843,0.007843,1.960784,1.960784,-1.960784,3
5.647059,4.235294,49.411765,-0.039216,0.007843,0.007843,1.960784,1.960784,-1.960784,3
5.647059,4.235294,49.411765,-0.039216,0.007843,0.007843,1.960784,1.960784,-1.960784,3
5.647059,4.235294,49.411765,-0.023529,0.007843,0.007843,1.960784,1.960784,-1.960784,3
5.647059,4.235294,49.411765,-0.023529,0.007843,-0.007843,1.960784,1.960784,-1.960784,3
5.647059,4.235294,49.411765,-0.039216,0.007843,0.007843,1.960784,1.960784,-1.960784,3
5.647059,4.235294,49.411765,-0.023529,0.007843,0.007843,1.960784,1.960784,-1.960784,3
5.647059,4.235294,49.411765,-0.039216,0.007843,-0.007843,1.960784,1.960784,-1.960784,3
5.647059,4.235294,49.411765,-0.039216,0.007843,0.007843,1.960784,1.960784,-1.960784,3
5.647059,4.235294,49.411765,-0.039216,0.007843,0.007843,1.960784,1.960784,-1.960784,3
5.647059,4.235294,49.411765,-0.039216,0.007843,-0.007843,1.960784,1.960784,-1.960784,3
5.647059,4.235294,49.411765,-0.039216,0.007843,-0.007843,1.960784,1.960784,-1.960784,3
5.647059,4.235294,49.411765,-0.039216,0.007843,0.007843,1.960784,1.960784,-1.960784,3
5.647059,4.235294,49.411765,-0.039216,0.007843,0.007843,1.960784,1.960784,-1.960784,3
5.647059,4.235294,49.411765,-0.039216,0.007843,-0.007843,1.960784,1.960784,-1.960784,3
5.647059,4.235294,49.411765,-0.023529,0.023529,0.007843,1.960784,1.960784,-1.960784,3
5.647059,4.235294,49.411765,-0.039216,0.007843,0.007843,1.960784,1.960784,-1.960784,3
5.647059,4.235294,49.411765,-0.023529,0.007843,0.007843,1.960784,1.960784,-1.960784,3
5.647059,4.235294,49.411765,-0.039216,0.007843,0.007843,1.960784,1.960784,-1.960784,3
5.647059,4.235294,49.411765,-0.039216,0.007843,0.007843,1.960784,1.960784,-1.960784,3
5.647059,4.235294,49.411765,-0.023529,0.007843,0.007843,1.960784,1.960784,-1.960784,3
5.647059,4.235294,49.411765,-0.039216,0.007843,0.007843,1.960784,1.960784,-1.960784,3
5.647059,4.235294,49.411765,-0.039216,0.007843,0.007843,1.960784,1.960784,-1.960784,3
5.647059,4.235294,49.411765,-0.039216,0.007843,-0.007843,1.960784,1.960784,-1.960784,3
5.647059,4.235294,49.411765,-0.039216,0.007843,0.007843,1.960784,1.960784,-1.960784,3
5.647059,4.235294,49.411765,-0.023529,0.007843,0.007843,1.960784,1.960784,-1.960784,3
5.647059,4.235294,49.411765,-0.023529,0.007843,0.007843,1.960784,1.960784,-1.960784,3
5.647059,4.235294,49.411765,-0.023529,0.007843,-0.007843,1.960784,1.960784,-1.960784,3
5.647059,4.235294,49.411765,-0.039216,0.007843,-0.007843,1.960784,1.960784,-1.960784,3
5.647059,4.235294,49.411765,-0.023529,0.007843,0.007843,1.960784,1.960784,-1.960784,3
5.647059,4.235294,49.411765,-0.039216,0.007843,-0.007843,1.960784,1.960784,-1.960784,3
5.647059,4.235294,49.411765,-0.023529,0.007843,-0.007843,1.960784,1.960784,-1.960784,3
5.647059,4.235294,49.411765,-0.039216,0.007843,-0.007843,1.960784,1.960784,-1.960784,3
5.647059,4.235294,49.411765,-0.023529,0.007843,0.007843,1.960784,1.960784,-1.960784,3
5.647059,4.235294,49.411765,-0.039216,0.007843,-0.007843,1.960784,1.960784,-1.960784,3
5.647059,4.235294,49.411765,-0.039216,0.007843,-0.007843,1.960784,1.960784,-1.960784,3
5.647059,4.235294,49.411765,-0.023529,0.007843,-0.007843,1.960784,1.960784,-1.960784,3
5.647059,4.235294,49.411765,-0.023529,0.007843,0.007843,1.960784,1.960784,-1.960784,3
5.647059,4.235294,49.411765,-0.023529,0.007843,0.007843,1.960784,1.960784,-1.960784,3
5.647059,4.235294,49.411765,-0.023529,0.007843,0.007843,1.960784,1.960784,-1.960784,3
5.647059,4.235294,49.411765,-0.039216,0.007843,-0.007843,1.960784,1.960784,-1.960784,3
5.647059,4.235294,49.411765,-0.023529,0.007843,-0.007843,1.960784,1.960784,-1.960784,3
5.647059,4.235294,49.411765,-0.023529,0.007843,0.007843,1.960784,1.960784,-1.960784,3
5.647059,4.235294,49.411765,-0.023529,0.007843,0.007843,1.960784,1.960784,-1.960784,3
5.647059,4.235294,49.411765,-0.039216,0.007843,0.007843,1.960784,1.960784,-1.960784,3
5.647059,4.235294,49.411765,-0.023529,0.007843,-0.007843,1.960784,1.960784,-1.960784,3
5.647059,4.235294,49.411765,-0.039216,0.007843,-0.007843,1.960784,1.960784,-1.960784,3
5.647059,4.235294,49.411765,-0.023529,0.007843,0.007843,1.960784,1.960784,-1.960784,3
5.647059,4.235294,49.411765,-0.039216,0.023529,0.007843,1.960784,1.960784,-1.960784,3
5.647059,4.235294,49.411765,-0.023529,0.007843,0.007843,1.960784,1.960784,-1.960784,3
5.647059,4.235294,49.411765,-0.023529,0.007843,0.007843,1.960784,1.960784,-1.960784,3
5.647059,4.235294,49.411765,-0.039216,0.007843,0.007843,1.960784,1.960784,-1.960784,3
5.647059,4.235294,49.411765,-0.023529,0.007843,0.007843,1.960784,1.960784,-1.960784,3
5.647059,4.235294,49.411765,-0.023529,0.007843,-0.007843,1.960784,1.960784,-1.960784,3
5.647059,4.235294,49.411765,-0.039216,0.007843,0.007843,1.960784,1.960784,-1.960784,3
5.647059,4.235294,49.411765,-0.039216,0.007843,0.007843,1.960784,1.960784,-1.960784,3
5.647059,4.235294,49.411765,-0.039216,0.007843,0.007843,1.960784,1.960784,-1.960784,3
5.647059,4.235294,49.411765,-0.039216,0.007843,0.007843,1.960784,1.960784,-1.960784,3
5.647059,4.235294,49.411765,-0.039216,0.007843,0.007843,1.960784,1.960784,-1.960784,3
5.647059,4.235294,49.411765,-0.023529,0.007843,0.007843,1.960784,1.960784,-1.960784,3
5.647059,4.235294,49.411765,-0.039216,0.007843,0.007843,1.960784,1.960784,-1.960784,3
5.647059,4.235294,49.411765,-0.039216,0.007843,0.007843,1.960784,1.960784,-1.960784,3
5.647059,4.235294,49.411765,-0.023529,0.007843,0.007843,1.960784,1.960784,-1.960784,3
5.647059,4.235294,49.411765,-0.023529,0.007843,0.007843,1.960784,1.960784,-1.960784,3
5.647059,4.235294,49.411765,-0.023529,0.007843,-0.007843,1.960784,1.960784,-1.960784,3
5.647059,4.235294,49.411765,-0.039216,0.007843,-0.007843,1.960784,1.960784,-1.960784,3
5.647059,4.235294,49.411765,-0.023529,0.007843,0.007843,1.960784,1.960784,-1.960784,3
5.647059,4.235294,49.411765,-0.039216,0.007843,-0.007843,1.960784,1.960784,-1.960784,3
5.647059,4.235294,49.411765,-0.039216,0.007843,0.007843,1.960784,1.960784,-1.960784,3
5.647059,4.235294,49.411765,-0.039216,0.007843,0.007843,1.960784,1.960784,-1.960784,3
5.647059,4.235294,49.411765,-0.023529,0.007843,0.007843,1.960784,1.960784,-1.960784,3
5.647059,4.235294,48,-0.023529,0.007843,0.007843,1.960784,1.960784,-1.960784,3
5.647059,4.235294,48,-0.023529,0.007843,0.007843,1.960784,1.960784,-1.960784,3
5.647059,4.235294,48,-0.023529,0.007843,0.007843,1.960784,1.960784,-1.960784,3
5.647059,4.235294,48,-0.039216,0.023529,-0.007843,1.960784,1.960784,-1.960784,3
5.647059,4.235294,48,-0.039216,0.007843,-0.007843,1.960784,1.960784,-1.960784,3
5.647059,4.235294,48,-0.039216,0.007843,-0.007843,1.960784,1.960784,-1.960784,3
5.647059,4.235294,48,-0.039216,0.007843,0.007843,1.960784,1.960784,-1.960784,3
5.647059,4.235294,48,-0.023529,0.007843,0.007843,1.960784,1.960784,-1.960784,3
5.647059,4.235294,48,-0.023529,0.007843,-0.007843,1.960784,1.960784,-1.960784,3
5.647059,4.235294,48,-0.039216,0.007843,0.007843,1.960784,1.960784,-1.960784,3
5.647059,4.235294,48,-0.023529,0.007843,0.007843,1.960784,1.960784,-1.960784,3
5.647059,4.235294,48,-0.023529,0.007843,-0.007843,1.960784,1.960784,-1.960784,3
5.647059,4.235294,48,-0.039216,0.007843,0.007843,1.960784,1.960784,-1.960784,3
5.647059,4.235294,48,-0.023529,0.007843,-0.007843,1.960784,1.960784,-1.960784,3
5.647059,4.235294,48,-0.039216,0.007843,-0.007843,1.960784,1.960784,-1.960784,3
5.647059,4.235294,48,-0.023529,0.023529,0.007843,1.960784,1.960784,-1.960784,3
5.647059,4.235294,48,-0.039216,0.007843,-0.007843,1.960784,1.960784,-1.960784,3
5.647059,4.235294,48,-0.023529,0.007843,-0.007843,1.960784,1.960784,-1.960784,3
5.647059,4.235294,48,-0.039216,0.007843,0.007843,1.960784,1.960784,-1.960784,3
5.647059,4.235294,48,-0.023529,0.007843,-0.007843,1.960784,1.960784,-1.960784,3
5.647059,4.235294,48,-0.039216,0.007843,0.007843,1.960784,1.960784,-1.960784,3
5.647059,4.235294,48,-0.039216,0.007843,0.007843,1.960784,1.960784,-1.960784,3
5.647059,4.235294,48,-0.023529,0.007843,0.007843,1.960784,1.960784,-1.960784,3
5.647059,4.235294,48,-0.039216,0.007843,-0.007843,1.960784,1.960784,-1.960784,3
5.647059,4.235294,48,-0.039216,0.007843,0.007843,1.960784,1.960784,-1.960784,3
5.647059,4.235294,48,-0.039216,0.007843,0.007843,1.960784,1.960784,-1.960784,3
5.647059,4.235294,48,-0.039216,0.007843,-0.007843,1.960784,1.960784,-1.960784,3
5.647059,4.235294,48,-0.039216,0.007843,0.007843,1.960784,1.960784,-1.960784,3
5.647059,4.235294,48,-0.039216,0.007843,0.007843,1.960784,1.960784,-1.960784,3
5.647059,4.235294,48,-0.039216,0.007843,0.007843,1.960784,1.960784,-1.960784,3
5.647059,4.235294,48,-0.023529,0.023529,-0.007843,1.960784,1.960784,-1.960784,3
5.647059,4.235294,48,-0.023529,0.007843,0.007843,1.960784,1.960784,-1.960784,3
5.647059,4.235294,48,-0.039216,0.007843,-0.007843,1.960784,1.960784,-1.960784,3
5.647059,4.235294,48,-0.039216,0.007843,-0.007843,1.960784,1.960784,-1.960784,3
5.647059,4.235294,48,-0.039216,0.007843,0.007843,1.960784,1.960784,-1.960784,3
5.647059,4.235294,48,-0.039216,0.023529,0.007843,1.960784,1.960784,-1.960784,3
5.647059,4.235294,48,-0.023529,0.023529,-0.007843,1.960784,1.960784,-1.960784,3
5.647059,4.235294,48,-0.039216,0.007843,0.007843,1.960784,1.960784,-1.960784,3
5.647059,4.235294,48,-0.023529,0.007843,0.007843,1.960784,1.960784,-1.960784,3
5.647059,4.235294,48,-0.039216,0.007843,0.007843,1.960784,1.960784,-1.960784,3
5.647059,4.235294,48,-0.023529,0.007843,0.007843,1.960784,1.960784,-1.960784,3
5.647059,4.235294,48,-0.039216,0.007843,0.007843,1.960784,1.960784,-1.960784,3
5.647059,4.235294,48,-0.023529,0.007843,-0.007843,1.960784,1.960784,-1.960784,3
5.647059,4.235294,48,-0.039216,0.007843,0.007843,1.960784,1.960784,-1.960784,3
5.647059,4.235294,48,-0.039216,0.007843,0.007843,1.960784,1.960784,-1.960784,3
5.647059,4.235294,48,-0.023529,0.007843,0.007843,1.960784,1.960784,-1.960784,3
5.647059,4.235294,48,-0.023529,0.007843,0.007843,1.960784,1.960784,-1.960784,3
5.647059,4.235294,48,-0.039216,0.007843,0.007843,1.960784,1.960784,-1.960784,3
5.647059,4.235294,48,-0.023529,0.007843,-0.007843,1.960784,1.960784,-1.960784,3
5.647059,4.235294,48,-0.039216,0.007843,0.007843,1.960784,1.960784,-1.960784,3
5.647059,4.235294,48,-0.039216,0.007843,0.007843,1.960784,1.960784,-1.960784,3
5.647059,4.235294,48,-0.039216,0.007843,0.007843,1.960784,1.960784,-1.960784,3
5.647059,4.235294,48,-0.023529,0.007843,0.007843,1.960784,1.960784,-1.960784,3
5.647059,4.235294,48,-0.039216,0.007843,0.007843,1.960784,1.960784,-1.960784,3
5.647059,4.235294,48,-0.023529,0.007843,0.007843,1.960784,1.960784,-1.960784,3
5.647059,4.235294,48,-0.039216,0.007843,-0.007843,1.960784,1.960784,-1.960784,3
5.647059,4.235294,48,-0.039216,0.007843,-0.007843,1.960784,1.960784,-1.960784,3
5.647059,4.235294,48,-0.039216,0.007843,0.007843,1.960784,1.960784,-1.960784,3
5.647059,4.235294,48,-0.039216,0.007843,0.007843,1.960784,1.960784,-1.960784,3
5.647059,4.235294,48,-0.023529,0.007843,0.007843,1.960784,1.960784,-1.960784,3
5.647059,4.235294,48,-0.023529,0.007843,-0.007843,1.960784,1.960784,-1.960784,3
5.647059,4.235294,48,-0.023529,0.007843,-0.007843,1.960784,1.960784,-1.960784,3
5.647059,4.235294,48,-0.039216,0.007843,-0.007843,1.960784,1.960784,-1.960784,3
5.647059,4.235294,48,-0.023529,0.007843,0.007843,1.960784,1.960784,-1.960784,3
5.647059,4.235294,48,-0.039216,0.023529,0.007843,1.960784,1.960784,-1.960784,3
5.647059,4.235294,48,-0.039216,0.007843,0.007843,1.960784,1.960784,-1.960784,3
5.647059,4.235294,48,-0.039216,0.007843,0.007843,1.960784,1.960784,-1.960784,3
5.647059,4.235294,48,-0.023529,0.007843,0.007843,1.960784,1.960784,-1.960784,3
5.647059,4.235294,48,-0.023529,0.007843,-0.007843,1.960784,1.960784,-1.960784,3
5.647059,4.235294,48,-0.023529,0.007843,0.007843,1.960784,1.960784,-1.960784,3
5.647059,4.235294,48,-0.039216,0.007843,-0.007843,1.960784,1.960784,-1.960784,3
5.647059,4.235294,48,-0.039216,0.007843,-0.007843,1.960784,1.960784,-1.960784,3
5.647059,4.235294,48,-0.039216,0.007843,-0.007843,1.960784,1.960784,-1.960784,3
5.647059,4.235294,48,-0.023529,0.007843,-0.007843,1.960784,1.960784,-1.960784,3
5.647059,4.235294,48,-0.039216,0.007843,-0.007843,1.960784,1.960784,-1.960784,3
5.647059,4.235294,48,-0.023529,0.007843,0.007843,1.960784,1.960784,-1.960784,3
5.647059,4.235294,48,-0.023529,0.007843,0.007843,1.960784,1.960784,-1.960784,3
5.647059,4.235294,48,-0.039216,0.007843,0.007843,1.960784,1.960784,-1.960784,3
5.647059,4.235294,48,-0.039216,0.007843,-0.007843,1.960784,1.960784,-1.960784,3
5.647059,4.235294,48,-0.039216,0.007843,0.007843,1.960784,1.960784,-1.960784,3
5.647059,4.235294,48,-0.039216,0.007843,0.007843,1.960784,1.960784,-1.960784,3
5.647059,4.235294,48,-0.023529,0.007843,0.007843,1.960784,1.960784,-1.960784,3
5.647059,4.235294,48,-0.039216,0.007843,0.007843,1.960784,1.960784,-1.960784,3
5.647059,4.235294,48,-0.039216,0.007843,-0.007843,1.960784,1.960784,-1.960784,3
5.647059,4.235294,48,-0.039216,0.007843,0.007843,1.960784,1.960784,-1.960784,3
5.647059,4.235294,48,-0.039216,0.007843,-0.007843,1.960784,1.960784,-1.960784,3
5.647059,4.235294,48,-0.039216,0.007843,-0.007843,1.960784,1.960784,-1.960784,3
5.647059,4.235294,48,-0.023529,0.007843,-0.007843,1.960784,1.960784,-1.960784,3
5.647059,4.235294,48,-0.039216,0.007843,0.007843,1.960784,1.960784,-1.960784,3
5.647059,4.235294,48,-0.023529,0.023529,0.007843,1.960784,1.960784,-1.960784,3
5.647059,4.235294,48,-0.039216,0.007843,0.007843,1.960784,1.960784,-1.960784,3
5.647059,4.235294,48,-0.039216,0.007843,0.007843,1.960784,1.960784,-1.960784,3
5.647059,4.235294,48,-0.039216,0.007843,0.007843,1.960784,1.960784,-1.960784,3
5.647059,4.235294,48,-0.039216,0.007843,0.007843,1.960784,1.960784,-1.960784,3
5.647059,4.235294,48,-0.039216,0.007843,-0.007843,1.960784,1.960784,-1.960784,3
5.647059,4.235294,48,-0.023529,0.007843,-0.007843,1.960784,1.960784,-1.960784,3
5.647059,4.235294,48,-0.039216,0.007843,-0.007843,1.960784,1.960784,-1.960784,3
5.647059,4.235294,48,-0.039216,0.007843,0.007843,1.960784,1.960784,-1.960784,3
5.647059,4.235294,48,-0.039216,0.007843,0.007843,1.960784,1.960784,-1.960784,3
5.647059,4.235294,48,-0.039216,0.007843,0.007843,1.960784,1.960784,-1.960784,3
5.647059,4.235294,48,-0.023529,0.007843,0.007843,1.960784,1.960784,-1.960784,3
5.647059,4.235294,48,-0.039216,0.007843,0.007843,1.960784,1.960784,-1.960784,3
5.647059,4.235294,48,-0.039216,0.007843,0.007843,1.960784,1.960784,-1.960784,3
5.647059,4.235294,48,-0.039216,0.007843,0.007843,1.960784,1.960784,-1.960784,3
5.647059,4.235294,48,-0.039216,0.007843,-0.007843,1.960784,1.960784,-1.960784,3
5.647059,4.235294,48,-0.039216,0.007843,-0.007843,1.960784,1.960784,-1.960784,3
5.647059,4.235294,48,-0.039216,0.007843,0.007843,1.960784,1.960784,-1.960784,3
5.647059,4.235294,48,-0.023529,0.007843,0.007843,1.960784,1.960784,-1.960784,3
5.647059,4.235294,48,-0.023529,0.023529,-0.007843,1.960784,1.960784,-1.960784,3
5.647059,4.235294,48,-0.023529,0.007843,0.007843,1.960784,1.960784,-1.960784,3
5.647059,4.235294,48,-0.039216,0.007843,-0.007843,1.960784,1.960784,-1.960784,3
5.647059,4.235294,48,-0.039216,0.007843,0.007843,1.960784,1.960784,-1.960784,3
5.647059,4.235294,48,-0.039216,0.007843,0.007843,1.960784,1.960784,-1.960784,3
5.647059,4.235294,48,-0.023529,0.007843,-0.007843,1.960784,1.960784,-1.960784,3
5.647059,4.235294,48,-0.023529,0.023529,-0.007843,1.960784,1.960784,-1.960784,3
5.647059,4.235294,48,-0.023529,0.007843,-0.007843,1.960784,1.960784,-1.960784,3
5.647059,4.235294,48,-0.023529,0.007843,0.007843,1.960784,1.960784,-1.960784,3
5.647059,4.235294,48,-0.039216,0.007843,0.007843,1.960784,1.960784,-1.960784,3
5.647059,4.235294,48,-0.039216,0.007843,0.007843,1.960784,1.960784,-1.960784,3
5.647059,4.235294,48,-0.039216,0.007843,0.007843,1.960784,1.960784,-1.960784,3
5.647059,4.235294,48,-0.023529,0.007843,-0.007843,1.960784,1.960784,-1.960784,3
5.647059,4.235294,48,-0.023529,0.007843,0.007843,1.960784,1.960784,-1.960784,3
5.647059,4.235294,48,-0.039216,0.007843,0.007843,1.960784,1.960784,-1.960784,3
5.647059,4.235294,48,-0.039216,0.007843,0.007843,1.960784,1.960784,-1.960784,3
5.647059,4.235294,48,-0.023529,0.007843,0.007843,1.960784,1.960784,-1.960784,3
5.647059,4.235294,48,-0.039216,0.023529,0.007843,1.960784,1.960784,-1.960784,3
5.647059,4.235294,48,-0.039216,0.007843,0.007843,1.960784,1.960784,-1.960784,3
5.647059,4.235294,48,-0.039216,0.007843,0.007843,1.960784,1.960784,-1.960784,3
5.647059,4.235294,48,-0.039216,0.007843,0.007843,1.960784,1.960784,-1.960784,3
5.647059,4.235294,48,-0.023529,0.007843,-0.007843,1.960784,1.960784,-1.960784,3
5.647059,4.235294,48,-0.039216,0.023529,-0.007843,1.960784,1.960784,-1.960784,3
5.647059,4.235294,48,-0.039216,0.007843,0.007843,1.960784,1.960784,-1.960784,3
5.647059,4.235294,48,-0.039216,0.007843,0.007843,1.960784,1.960784,-1.960784,3
5.647059,4.235294,48,-0.039216,0.007843,-0.007843,1.960784,1.960784,-1.960784,3
5.647059,4.235294,48,-0.039216,0.007843,0.007843,1.960784,1.960784,-1.960784,3
5.647059,4.235294,48,-0.039216,0.007843,-0.007843,1.960784,1.960784,-1.960784,3
5.647059,4.235294,48,-0.023529,0.007843,0.007843,1.960784,1.960784,-1.960784,3
5.647059,4.235294,48,-0.039216,0.007843,0.007843,1.960784,1.960784,-1.960784,3
5.647059,4.235294,48,-0.039216,-0.007843,0.039216,1.960784,1.960784,-1.960784,3
5.647059,4.235294,48,-0.007843,0.007843,-0.023529,1.960784,1.960784,-1.960784,3
5.647059,4.235294,48,-0.054902,0.023529,0.023529,1.960784,1.960784,-1.960784,3
5.647059,4.235294,48,-0.007843,0.023529,-0.023529,1.960784,1.960784,-1.960784,3
5.647059,4.235294,48,-0.054902,0.007843,0.007843,1.960784,1.960784,-1.960784,3
5.647059,4.235294,48,-0.023529,0.007843,-0.007843,1.960784,1.960784,-1.960784,3
5.647059,4.235294,48,-0.039216,0.007843,0.007843,1.960784,1.960784,-1.960784,3
5.647059,4.235294,48,-0.023529,0.007843,0.007843,1.960784,1.960784,-1.960784,3
5.647059,4.235294,48,-0.039216,0.007843,0.007843,1.960784,1.960784,-1.960784,3
5.647059,4.235294,48,-0.023529,0.007843,-0.007843,1.960784,1.960784,-1.960784,3
5.647059,4.235294,48,-0.023529,0.007843,-0.007843,1.960784,1.960784,-1.960784,3
5.647059,4.235294,48,-0.101961,0.070588,0.007843,1.960784,1.960784,5.882353,3
5.647059,4.235294,49.411765,0.007843,0.007843,-0.007843,1.960784,-1.960784,17.647059,3
5.647059,4.235294,49.411765,0.007843,-0.070588,0.007843,1.960784,-1.960784,25.490196,3
5.647059,4.235294,49.411765,0.023529,0.039216,-0.023529,-1.960784,1.960784,-1.960784,3
5.647059,4.235294,49.411765,-0.086275,0.039216,0.007843,-1.960784,-1.960784,-13.72549,3
5.647059,4.235294,49.411765,0.007843,-0.086275,-0.007843,1.960784,1.960784,-5.882353,3
5.647059,4.235294,48,-0.023529,-0.039216,0.023529,1.960784,-1.960784,-29.411765,3
5.647059,4.235294,46.588235,-0.054902,0.039216,0.023529,1.960784,1.960784,-33.333333,3
5.647059,4.235294,46.588235,0.054902,-0.039216,0.164706,-5.882353,-5.882353,-21.568627,3
5.647059,4.235294,45.176471,-0.054902,0.007843,-0.039216,1.960784,-1.960784,-29.411765,3
5.647059,4.235294,45.176471,-0.039216,-0.007843,-0.007843,-1.960784,5.882353,-25.490196,3
5.647059,4.235294,43.764706,-0.023529,0.007843,0.023529,1.960784,1.960784,-13.72549,3
5.647059,4.235294,43.764706,-0.007843,0.007843,-0.007843,1.960784,1.960784,-17.647059,3
5.647059,4.235294,43.764706,-0.039216,0.007843,0.007843,1.960784,1.960784,-9.803922,3
5.647059,4.235294,43.764706,-0.039216,0.039216,-0.007843,1.960784,1.960784,-13.72549,3
5.647059,4.235294,42.352941,-0.054902,0.023529,0.007843,1.960784,-1.960784,-9.803922,3
5.647059,4.235294,42.352941,0.007843,-0.023529,-0.023529,1.960784,1.960784,-9.803922,3
5.647059,4.235294,42.352941,-0.039216,0.023529,0.007843,1.960784,1.960784,-1.960784,3
5.647059,4.235294,42.352941,-0.14902,0.039216,0.086275,-1.960784,-1.960784,-5.882353,3
5.647059,4.235294,42.352941,0.007843,-0.007843,-0.023529,1.960784,1.960784,-9.803922,3
5.647059,4.235294,42.352941,-0.117647,0.007843,0.117647,5.882353,1.960784,-1.960784,3
5.647059,4.235294,42.352941,0.007843,0.023529,0.007843,1.960784,1.960784,-1.960784,3
5.647059,4.235294,42.352941,-0.007843,0.023529,0.007843,1.960784,-1.960784,-1.960784,3
5.647059,4.235294,42.352941,-0.023529,0.023529,0.007843,1.960784,-1.960784,-1.960784,3
5.647059,4.235294,42.352941,-0.023529,0.007843,0.007843,1.960784,1.960784,-1.960784,3
5.647059,4.235294,42.352941,-0.039216,0.007843,-0.007843,1.960784,1.960784,-1.960784,3
5.647059,4.235294,42.352941,-0.023529,0.007843,-0.007843,1.960784,1.960784,-1.960784,3
5.647059,4.235294,42.352941,-0.039216,0.007843,0.007843,1.960784,1.960784,-1.960784,3
5.647059,4.235294,42.352941,-0.039216,0.007843,0.007843,1.960784,1.960784,-1.960784,3
5.647059,4.235294,42.352941,-0.023529,0.007843,-0.007843,1.960784,1.960784,-1.960784,3
5.647059,4.235294,42.352941,-0.039216,0.007843,0.007843,1.960784,-1.960784,-1.960784,3
5.647059,4.235294,42.352941,-0.039216,0.007843,-0.007843,1.960784,1.960784,-1.960784,3
5.647059,4.235294,42.352941,-0.039216,0.007843,-0.007843,1.960784,1.960784,-1.960784,3
5.647059,4.235294,42.352941,-0.039216,0.007843,0.007843,1.960784,1.960784,-1.960784,3
5.647059,4.235294,42.352941,-0.023529,0.023529,-0.023529,1.960784,1.960784,-1.960784,3
5.647059,4.235294,42.352941,-0.039216,0.007843,0.007843,1.960784,1.960784,-1.960784,3
5.647059,4.235294,42.352941,-0.023529,0.007843,-0.007843,1.960784,1.960784,-1.960784,3
5.647059,4.235294,42.352941,-0.039216,0.023529,0.007843,1.960784,1.960784,-1.960784,3
5.647059,4.235294,42.352941,-0.023529,0.023529,-0.007843,1.960784,1.960784,-1.960784,3
5.647059,4.235294,42.352941,-0.039216,0.007843,0.007843,1.960784,-1.960784,-1.960784,3
5.647059,4.235294,42.352941,-0.039216,0.007843,0.007843,1.960784,1.960784,-1.960784,3
5.647059,4.235294,42.352941,-0.039216,0.007843,0.007843,1.960784,1.960784,-1.960784,3
5.647059,4.235294,42.352941,-0.039216,0.023529,-0.007843,1.960784,1.960784,-1.960784,3
5.647059,4.235294,42.352941,-0.023529,0.007843,0.007843,1.960784,1.960784,-1.960784,3
5.647059,4.235294,42.352941,-0.023529,0.007843,-0.007843,1.960784,1.960784,-1.960784,3
5.647059,4.235294,42.352941,-0.039216,0.023529,-0.007843,1.960784,1.960784,-1.960784,3
5.647059,4.235294,42.352941,-0.039216,0.007843,0.007843,1.960784,-1.960784,-1.960784,3
5.647059,4.235294,42.352941,-0.039216,0.023529,0.007843,1.960784,1.960784,-1.960784,3
5.647059,4.235294,42.352941,-0.023529,0.007843,-0.007843,1.960784,1.960784,-1.960784,3
5.647059,4.235294,42.352941,-0.039216,0.007843,0.007843,1.960784,1.960784,-1.960784,3
5.647059,4.235294,42.352941,-0.023529,0.007843,0.007843,1.960784,1.960784,-1.960784,3
5.647059,4.235294,42.352941,-0.039216,0.023529,0.007843,1.960784,1.960784,-1.960784,3
5.647059,4.235294,42.352941,-0.039216,0.007843,0.007843,1.960784,1.960784,-1.960784,3
5.647059,4.235294,42.352941,-0.023529,0.007843,0.007843,1.960784,1.960784,-1.960784,3
5.647059,4.235294,42.352941,-0.039216,0.007843,-0.007843,1.960784,1.960784,-1.960784,3
5.647059,4.235294,42.352941,-0.023529,0.007843,0.007843,1.960784,1.960784,-1.960784,3
5.647059,4.235294,42.352941,-0.039216,0.007843,0.007843,1.960784,1.960784,-1.960784,3
5.647059,4.235294,42.352941,-0.023529,0.007843,0.007843,1.960784,1.960784,-1.960784,3
5.647059,4.235294,42.352941,-0.039216,0.007843,-0.007843,1.960784,1.960784,-1.960784,3
5.647059,4.235294,42.352941,-0.039216,0.007843,-0.007843,1.960784,1.960784,-1.960784,3
5.647059,4.235294,42.352941,-0.023529,0.023529,0.007843,1.960784,1.960784,-1.960784,3
5.647059,4.235294,42.352941,-0.023529,0.007843,0.007843,1.960784,1.960784,-1.960784,3
5.647059,4.235294,42.352941,-0.039216,0.007843,-0.007843,1.960784,1.960784,-1.960784,3
5.647059,4.235294,42.352941,-0.023529,0.007843,0.007843,1.960784,1.960784,-1.960784,3
5.647059,4.235294,42.352941,-0.039216,0.007843,0.007843,1.960784,1.960784,-1.960784,3
5.647059,4.235294,42.352941,-0.039216,0.007843,-0.007843,1.960784,1.960784,-1.960784,3
5.647059,4.235294,42.352941,-0.039216,0.007843,0.007843,1.960784,1.960784,-1.960784,3
5.647059,4.235294,42.352941,-0.039216,0.007843,-0.007843,1.960784,1.960784,-1.960784,3
5.647059,4.235294,42.352941,-0.023529,0.007843,0.007843,1.960784,1.960784,-1.960784,3
5.647059,4.235294,42.352941,-0.023529,0.023529,0.007843,1.960784,1.960784,-1.960784,3
5.647059,4.235294,42.352941,-0.023529,0.007843,0.007843,1.960784,1.960784,-1.960784,3
5.647059,4.235294,42.352941,-0.039216,0.007843,0.007843,1.960784,1.960784,-1.960784,3
5.647059,4.235294,42.352941,-0.039216,0.007843,-0.007843,1.960784,1.960784,-1.960784,3
5.647059,4.235294,42.352941,-0.039216,0.007843,0.007843,1.960784,1.960784,-1.960784,3
5.647059,4.235294,42.352941,-0.023529,0.007843,0.007843,1.960784,1.960784,-1.960784,3
5.647059,4.235294,42.352941,-0.023529,0.007843,0.007843,1.960784,1.960784,-1.960784,3
5.647059,4.235294,42.352941,-0.023529,0.007843,-0.007843,1.960784,1.960784,-1.960784,3
5.647059,4.235294,42.352941,-0.039216,0.007843,-0.007843,1.960784,1.960784,-1.960784,3
5.647059,4.235294,42.352941,-0.039216,0.007843,-0.007843,1.960784,1.960784,-1.960784,3
5.647059,4.235294,42.352941,-0.039216,0.007843,0.007843,1.960784,1.960784,-1.960784,3
5.647059,4.235294,42.352941,-0.039216,0.007843,0.007843,1.960784,1.960784,-1.960784,3
5.647059,4.235294,42.352941,-0.039216,0.007843,-0.007843,1.960784,1.960784,-1.960784,3
5.647059,4.235294,42.352941,-0.039216,0.007843,0.007843,1.960784,1.960784,-1.960784,3
5.647059,4.235294,42.352941,-0.039216,0.007843,-0.007843,1.960784,1.960784,-1.960784,3
5.647059,4.235294,42.352941,-0.039216,0.023529,0.007843,1.960784,1.960784,-1.960784,3
5.647059,4.235294,42.352941,-0.039216,0.023529,0.007843,1.960784,1.960784,-1.960784,3
5.647059,4.235294,42.352941,-0.023529,0.007843,0.007843,1.960784,1.960784,-1.960784,3
5.647059,4.235294,42.352941,-0.039216,0.007843,0.007843,1.960784,1.960784,-1.960784,3
5.647059,4.235294,42.352941,-0.039216,0.007843,0.007843,1.960784,1.960784,-1.960784,3
5.647059,4.235294,42.352941,-0.039216,0.023529,0.007843,1.960784,1.960784,-1.960784,3
5.647059,4.235294,42.352941,-0.023529,0.007843,0.007843,1.960784,1.960784,-1.960784,3
5.647059,4.235294,42.352941,-0.023529,0.007843,0.007843,1.960784,1.960784,-1.960784,3
5.647059,4.235294,42.352941,-0.023529,0.007843,-0.007843,1.960784,1.960784,-1.960784,3
5.647059,4.235294,42.352941,-0.023529,0.007843,0.007843,1.960784,1.960784,-1.960784,3
5.647059,4.235294,42.352941,-0.023529,0.007843,-0.007843,1.960784,1.960784,-1.960784,3
5.647059,4.235294,42.352941,-0.039216,0.007843,0.007843,1.960784,1.960784,-1.960784,3
5.647059,4.235294,42.352941,-0.023529,0.007843,0.007843,1.960784,1.960784,-1.960784,3
5.647059,4.235294,42.352941,-0.039216,0.007843,0.007843,1.960784,1.960784,-1.960784,3
5.647059,4.235294,42.352941,-0.039216,0.007843,0.007843,1.960784,1.960784,-1.960784,3
5.647059,4.235294,42.352941,-0.023529,0.007843,-0.007843,1.960784,1.960784,-1.960784,3
5.647059,4.235294,42.352941,-0.039216,0.007843,0.007843,1.960784,1.960784,-1.960784,3
5.647059,4.235294,42.352941,-0.039216,0.007843,0.007843,1.960784,1.960784,-1.960784,3
5.647059,4.235294,42.352941,-0.039216,0.007843,-0.007843,1.960784,1.960784,-1.960784,3
5.647059,4.235294,42.352941,-0.039216,0.023529,0.007843,1.960784,1.960784,-1.960784,3
5.647059,4.235294,42.352941,-0.023529,0.007843,-0.007843,1.960784,1.960784,-1.960784,3
5.647059,4.235294,42.352941,-0.039216,0.007843,0.007843,1.960784,1.960784,-1.960784,3
5.647059,4.235294,42.352941,-0.039216,0.007843,0.007843,1.960784,1.960784,-1.960784,3
5.647059,4.235294,42.352941,-0.039216,0.007843,0.007843,1.960784,1.960784,-1.960784,3
5.647059,4.235294,42.352941,-0.023529,0.007843,0.007843,1.960784,1.960784,-1.960784,3
5.647059,4.235294,42.352941,-0.023529,0.023529,0.007843,1.960784,1.960784,-1.960784,3
5.647059,4.235294,42.352941,-0.039216,0.007843,0.007843,1.960784,1.960784,-1.960784,3
5.647059,4.235294,42.352941,-0.039216,0.007843,0.007843,1.960784,1.960784,-1.960784,3
5.647059,4.235294,42.352941,-0.039216,0.007843,-0.007843,1.960784,1.960784,-1.960784,3
5.647059,4.235294,42.352941,-0.039216,0.007843,0.007843,1.960784,1.960784,-1.960784,3
5.647059,4.235294,42.352941,-0.039216,0.023529,0.007843,1.960784,1.960784,-1.960784,3
5.647059,4.235294,42.352941,-0.023529,0.007843,-0.007843,1.960784,1.960784,-1.960784,3
5.647059,4.235294,42.352941,-0.039216,0.007843,-0.007843,1.960784,1.960784,-1.960784,3
5.647059,4.235294,42.352941,-0.039216,0.007843,-0.007843,1.960784,1.960784,-1.960784,3
5.647059,4.235294,42.352941,-0.023529,0.007843,0.007843,1.960784,1.960784,-1.960784,3
5.647059,4.235294,42.352941,-0.039216,0.007843,0.007843,1.960784,1.960784,-1.960784,3
5.647059,4.235294,42.352941,-0.023529,0.023529,0.007843,1.960784,1.960784,-1.960784,3
5.647059,4.235294,42.352941,-0.023529,0.007843,0.007843,1.960784,1.960784,-1.960784,3
5.647059,4.235294,42.352941,-0.023529,0.007843,-0.007843,1.960784,1.960784,-1.960784,3
5.647059,4.235294,42.352941,-0.039216,0.007843,-0.007843,1.960784,1.960784,-1.960784,3
5.647059,4.235294,42.352941,-0.039216,0.007843,0.007843,1.960784,1.960784,-1.960784,3
5.647059,4.235294,42.352941,-0.039216,0.007843,0.007843,1.960784,1.960784,-1.960784,3
5.647059,4.235294,42.352941,-0.039216,0.007843,0.007843,1.960784,1.960784,-1.960784,3
5.647059,4.235294,42.352941,-0.039216,0.007843,0.007843,1.960784,1.960784,-1.960784,3
5.647059,4.235294,42.352941,-0.023529,0.023529,0.007843,1.960784,1.960784,-1.960784,3
5.647059,4.235294,42.352941,-0.039216,0.007843,0.007843,1.960784,1.960784,-1.960784,3
5.647059,4.235294,42.352941,-0.039216,0.007843,0.007843,1.960784,1.960784,-1.960784,3
5.647059,4.235294,42.352941,-0.039216,0.007843,-0.007843,1.960784,1.960784,-1.960784,3
5.647059,4.235294,42.352941,-0.039216,0.007843,0.007843,1.960784,1.960784,-1.960784,3
5.647059,4.235294,42.352941,-0.039216,0.007843,0.007843,1.960784,1.960784,-1.960784,3
5.647059,4.235294,42.352941,-0.023529,0.007843,-0.007843,1.960784,1.960784,-1.960784,3
5.647059,4.235294,42.352941,-0.039216,0.007843,0.007843,1.960784,1.960784,-1.960784,3
5.647059,4.235294,42.352941,-0.039216,0.007843,-0.007843,1.960784,1.960784,-1.960784,3
5.647059,4.235294,42.352941,-0.023529,0.007843,0.007843,1.960784,1.960784,-1.960784,3
5.647059,4.235294,42.352941,-0.039216,0.023529,0.007843,1.960784,1.960784,-1.960784,3
5.647059,4.235294,42.352941,-0.023529,0.007843,0.007843,1.960784,1.960784,-1.960784,3
5.647059,4.235294,42.352941,-0.039216,0.007843,-0.007843,1.960784,1.960784,-1.960784,3
5.647059,4.235294,42.352941,-0.023529,0.007843,-0.007843,1.960784,1.960784,-1.960784,3
5.647059,4.235294,42.352941,-0.039216,0.007843,0.007843,1.960784,1.960784,-1.960784,3
5.647059,4.235294,42.352941,-0.039216,0.007843,-0.007843,1.960784,1.960784,-1.960784,3
5.647059,4.235294,42.352941,-0.039216,0.007843,-0.007843,1.960784,1.960784,-1.960784,3
5.647059,4.235294,42.352941,-0.039216,0.007843,-0.007843,1.960784,1.960784,-1.960784,3
5.647059,4.235294,42.352941,-0.023529,0.007843,0.007843,1.960784,1.960784,-1.960784,3
5.647059,4.235294,42.352941,-0.039216,0.007843,-0.007843,1.960784,1.960784,-1.960784,3
5.647059,4.235294,40.941176,-0.023529,0.007843,-0.007843,1.960784,1.960784,-1.960784,3
5.647059,4.235294,40.941176,-0.039216,0.007843,-0.007843,1.960784,1.960784,-1.960784,3
5.647059,4.235294,40.941176,-0.039216,0.007843,0.007843,1.960784,1.960784,-1.960784,3
5.647059,4.235294,40.941176,-0.039216,0.007843,0.007843,1.960784,1.960784,-1.960784,3
5.647059,4.235294,40.941176,-0.023529,0.007843,-0.007843,1.960784,1.960784,-1.960784,3
5.647059,4.235294,40.941176,-0.039216,0.007843,0.007843,1.960784,1.960784,-1.960784,3
5.647059,4.235294,40.941176,-0.023529,0.007843,-0.007843,1.960784,1.960784,-1.960784,3
5.647059,4.235294,40.941176,-0.023529,0.007843,0.007843,1.960784,1.960784,-1.960784,3
5.647059,4.235294,40.941176,-0.039216,0.007843,0.007843,1.960784,1.960784,-1.960784,3
5.647059,4.235294,40.941176,-0.039216,0.007843,0.007843,1.960784,1.960784,-1.960784,3
5.647059,4.235294,40.941176,-0.023529,0.007843,0.007843,1.960784,1.960784,-1.960784,3
5.647059,4.235294,40.941176,-0.039216,0.007843,0.007843,1.960784,1.960784,-1.960784,3
5.647059,4.235294,40.941176,-0.039216,0.007843,-0.007843,1.960784,1.960784,-1.960784,3
5.647059,4.235294,40.941176,-0.039216,0.007843,0.007843,1.960784,1.960784,-1.960784,3
5.647059,4.235294,40.941176,-0.039216,0.007843,0.007843,1.960784,1.960784,-1.960784,3
5.647059,4.235294,40.941176,-0.039216,0.007843,0.007843,1.960784,1.960784,-1.960784,3
5.647059,4.235294,40.941176,-0.039216,0.007843,0.007843,1.960784,1.960784,-1.960784,3
5.647059,4.235294,40.941176,-0.039216,0.007843,-0.007843,1.960784,1.960784,-1.960784,3
5.647059,4.235294,40.941176,-0.023529,0.007843,-0.007843,1.960784,1.960784,-1.960784,3
5.647059,4.235294,40.941176,-0.023529,0.007843,-0.007843,1.960784,1.960784,-1.960784,3
5.647059,4.235294,40.941176,-0.039216,0.007843,0.007843,1.960784,1.960784,-1.960784,3
5.647059,4.235294,40.941176,-0.039216,0.007843,0.007843,1.960784,1.960784,-1.960784,3
5.647059,4.235294,40.941176,-0.023529,0.023529,-0.007843,1.960784,1.960784,-1.960784,3
5.647059,4.235294,40.941176,-0.023529,0.007843,0.007843,1.960784,1.960784,-1.960784,3
5.647059,4.235294,40.941176,-0.023529,0.007843,-0.007843,1.960784,1.960784,-1.960784,3
5.647059,4.235294,40.941176,-0.023529,0.007843,-0.007843,1.960784,1.960784,-1.960784,3
5.647059,4.235294,40.941176,-0.039216,0.007843,0.007843,1.960784,1.960784,-1.960784,3
5.647059,4.235294,40.941176,-0.039216,0.007843,0.007843,1.960784,1.960784,-1.960784,3
5.647059,4.235294,40.941176,-0.039216,0.007843,0.007843,1.960784,1.960784,-1.960784,3
5.647059,4.235294,40.941176,-0.039216,0.007843,0.007843,1.960784,1.960784,-1.960784,3
5.647059,4.235294,40.941176,-0.023529,0.007843,0.007843,1.960784,1.960784,-1.960784,3
5.647059,4.235294,40.941176,-0.039216,0.023529,-0.007843,1.960784,1.960784,-1.960784,3
5.647059,4.235294,40.941176,-0.039216,0.007843,-0.007843,1.960784,1.960784,-1.960784,3
5.647059,4.235294,40.941176,-0.039216,0.023529,0.007843,1.960784,1.960784,-1.960784,3
5.647059,4.235294,40.941176,-0.023529,0.007843,-0.007843,1.960784,1.960784,-1.960784,3
5.647059,4.235294,40.941176,-0.023529,0.007843,0.007843,1.960784,1.960784,-1.960784,3
5.647059,4.235294,40.941176,-0.023529,0.007843,-0.007843,1.960784,1.960784,-1.960784,3
5.647059,4.235294,40.941176,-0.039216,0.007843,0.007843,1.960784,1.960784,-1.960784,3
5.647059,4.235294,40.941176,-0.039216,0.007843,-0.007843,1.960784,1.960784,-1.960784,3
5.647059,4.235294,40.941176,-0.023529,0.007843,-0.007843,1.960784,1.960784,-1.960784,3
5.647059,4.235294,40.941176,-0.039216,0.023529,0.007843,1.960784,1.960784,-1.960784,3
5.647059,4.235294,40.941176,-0.039216,0.007843,0.007843,1.960784,1.960784,-1.960784,3
5.647059,4.235294,40.941176,-0.039216,0.007843,0.007843,1.960784,1.960784,-1.960784,3
5.647059,4.235294,40.941176,-0.039216,0.007843,0.007843,1.960784,1.960784,-1.960784,3
5.647059,4.235294,40.941176,-0.039216,0.007843,0.007843,1.960784,1.960784,-1.960784,3
5.647059,4.235294,40.941176,-0.039216,0.007843,0.007843,1.960784,1.960784,-1.960784,3
5.647059,4.235294,40.941176,-0.023529,0.007843,-0.007843,1.960784,1.960784,-1.960784,3
5.647059,4.235294,40.941176,-0.039216,0.007843,-0.007843,1.960784,1.960784,-1.960784,3
5.647059,4.235294,40.941176,-0.023529,0.007843,0.007843,1.960784,1.960784,-1.960784,3
5.647059,4.235294,40.941176,-0.023529,0.007843,-0.007843,1.960784,1.960784,-1.960784,3
5.647059,4.235294,40.941176,-0.039216,0.007843,-0.007843,1.960784,1.960784,-1.960784,3
5.647059,4.235294,40.941176,-0.039216,0.007843,0.007843,1.960784,1.960784,-1.960784,3
5.647059,4.235294,40.941176,-0.039216,0.007843,-0.007843,1.960784,1.960784,-1.960784,3
5.647059,4.235294,40.941176,-0.023529,0.007843,0.007843,1.960784,1.960784,-1.960784,3
5.647059,4.235294,40.941176,-0.039216,0.007843,0.007843,1.960784,1.960784,-1.960784,3
5.647059,4.235294,40.941176,-0.039216,0.007843,0.007843,1.960784,1.960784,-1.960784,3
5.647059,4.235294,40.941176,-0.039216,0.007843,0.007843,1.960784,1.960784,-1.960784,3
5.647059,4.235294,40.941176,-0.023529,0.007843,0.007843,1.960784,1.960784,-1.960784,3
5.647059,4.235294,40.941176,-0.023529,0.007843,-0.007843,1.960784,1.960784,-1.960784,3
5.647059,4.235294,40.941176,-0.039216,0.007843,0.007843,1.960784,1.960784,-1.960784,3
5.647059,4.235294,40.941176,-0.039216,0.007843,0.007843,1.960784,1.960784,-1.960784,3
5.647059,4.235294,40.941176,-0.039216,0.007843,0.007843,1.960784,1.960784,-1.960784,3
5.647059,4.235294,40.941176,-0.023529,0.007843,-0.007843,1.960784,1.960784,-1.960784,3
5.647059,4.235294,40.941176,-0.039216,0.007843,0.007843,1.960784,1.960784,-1.960784,3
5.647059,4.235294,40.941176,-0.039216,0.007843,0.007843,1.960784,1.960784,-1.960784,3
5.647059,4.235294,40.941176,-0.039216,0.007843,0.007843,1.960784,1.960784,-1.960784,3
5.647059,4.235294,40.941176,-0.039216,0.007843,-0.007843,1.960784,1.960784,-1.960784,3
5.647059,4.235294,40.941176,-0.039216,0.007843,0.007843,1.960784,1.960784,-1.960784,3
5.647059,4.235294,40.941176,-0.023529,0.007843,0.007843,1.960784,1.960784,-1.960784,3
5.647059,4.235294,40.941176,-0.023529,0.007843,0.007843,1.960784,1.960784,-1.960784,3
5.647059,4.235294,40.941176,-0.039216,0.007843,0.007843,1.960784,1.960784,-1.960784,3
5.647059,4.235294,40.941176,-0.039216,0.007843,0.007843,1.960784,1.960784,-1.960784,3
5.647059,4.235294,40.941176,-0.039216,0.007843,-0.007843,1.960784,1.960784,-1.960784,3
5.647059,4.235294,40.941176,-0.039216,0.007843,0.007843,1.960784,1.960784,-1.960784,3
5.647059,4.235294,40.941176,-0.023529,0.007843,-0.007843,1.960784,1.960784,-1.960784,3
5.647059,4.235294,40.941176,-0.039216,0.007843,0.007843,1.960784,1.960784,-1.960784,3
5.647059,4.235294,40.941176,-0.039216,0.007843,0.007843,1.960784,1.960784,-1.960784,3
5.647059,4.235294,40.941176,-0.023529,0.007843,0.007843,1.960784,1.960784,-1.960784,3
5.647059,4.235294,40.941176,-0.023529,0.007843,0.007843,1.960784,1.960784,-1.960784,3
5.647059,4.235294,40.941176,-0.039216,0.007843,0.007843,1.960784,1.960784,-1.960784,3
5.647059,4.235294,40.941176,-0.039216,0.007843,-0.007843,1.960784,1.960784,-1.960784,3
5.647059,4.235294,40.941176,-0.039216,0.007843,0.007843,1.960784,1.960784,-1.960784,3
5.647059,4.235294,40.941176,-0.023529,0.007843,-0.007843,1.960784,1.960784,-1.960784,3
5.647059,4.235294,40.941176,-0.023529,0.007843,-0.007843,1.960784,1.960784,-1.960784,3
5.647059,4.235294,40.941176,-0.039216,0.007843,0.007843,1.960784,1.960784,-1.960784,3
5.647059,4.235294,40.941176,-0.039216,0.007843,0.007843,1.960784,1.960784,-1.960784,3
5.647059,4.235294,40.941176,-0.039216,0.007843,0.007843,1.960784,1.960784,-1.960784,3
5.647059,4.235294,40.941176,-0.023529,0.007843,-0.007843,1.960784,1.960784,-1.960784,3
5.647059,4.235294,40.941176,-0.039216,0.007843,-0.007843,1.960784,1.960784,-1.960784,3
5.647059,4.235294,40.941176,-0.023529,0.007843,0.007843,1.960784,1.960784,-1.960784,3
5.647059,4.235294,40.941176,-0.039216,0.007843,0.007843,1.960784,1.960784,-1.960784,3
5.647059,4.235294,40.941176,-0.023529,0.007843,-0.007843,1.960784,1.960784,-1.960784,3
5.647059,4.235294,40.941176,-0.039216,0.007843,0.007843,1.960784,1.960784,-1.960784,3
5.647059,4.235294,40.941176,-0.039216,0.007843,-0.007843,1.960784,1.960784,-1.960784,3
5.647059,4.235294,40.941176,-0.039216,0.007843,0.007843,1.960784,1.960784,-1.960784,3
5.647059,4.235294,40.941176,-0.039216,0.007843,-0.007843,1.960784,1.960784,-1.960784,3
5.647059,4.235294,40.941176,-0.039216,0.007843,-0.007843,1.960784,1.960784,-1.960784,3
5.647059,4.235294,40.941176,-0.039216,0.007843,-0.007843,1.960784,1.960784,-1.960784,3
5.647059,4.235294,40.941176,-0.039216,0.007843,0.007843,1.960784,1.960784,-1.960784,3
5.647059,4.235294,40.941176,-0.039216,0.007843,0.007843,1.960784,1.960784,-1.960784,3
5.647059,4.235294,40.941176,-0.039216,0.007843,0.007843,1.960784,1.960784,-1.960784,3
5.647059,4.235294,40.941176,-0.023529,0.007843,0.007843,1.960784,1.960784,-1.960784,3
5.647059,4.235294,40.941176,-0.039216,0.023529,0.007843,1.960784,1.960784,-1.960784,3
5.647059,4.235294,40.941176,-0.039216,0.007843,0.007843,1.960784,1.960784,-1.960784,3
5.647059,4.235294,40.941176,-0.039216,0.007843,0.007843,1.960784,1.960784,-1.960784,3
5.647059,4.235294,40.941176,-0.039216,0.007843,0.007843,1.960784,1.960784,-1.960784,3
5.647059,4.235294,40.941176,-0.039216,0.007843,0.007843,1.960784,1.960784,-1.960784,3
5.647059,4.235294,40.941176,-0.039216,0.007843,0.007843,1.960784,1.960784,-1.960784,3
5.647059,4.235294,40.941176,-0.023529,0.007843,0.007843,1.960784,1.960784,-1.960784,3
5.647059,4.235294,40.941176,-0.039216,0.007843,0.007843,1.960784,1.960784,-1.960784,3
5.647059,4.235294,40.941176,-0.039216,0.007843,-0.007843,1.960784,1.960784,-1.960784,3
5.647059,4.235294,40.941176,-0.039216,0.007843,0.007843,1.960784,1.960784,-1.960784,3
5.647059,4.235294,40.941176,-0.023529,0.007843,-0.007843,1.960784,1.960784,-1.960784,3
5.647059,4.235294,40.941176,-0.039216,0.007843,0.007843,1.960784,1.960784,-1.960784,3
5.647059,4.235294,40.941176,-0.039216,0.007843,0.007843,1.960784,1.960784,-1.960784,3
5.647059,4.235294,40.941176,-0.039216,0.007843,0.007843,1.960784,1.960784,-1.960784,3
5.647059,4.235294,40.941176,-0.023529,0.007843,0.007843,1.960784,1.960784,-1.960784,3
5.647059,4.235294,40.941176,-0.039216,0.023529,-0.007843,1.960784,1.960784,-1.960784,3
5.647059,4.235294,40.941176,-0.023529,0.007843,0.007843,1.960784,1.960784,-1.960784,3
5.647059,4.235294,40.941176,-0.039216,0.007843,0.007843,1.960784,1.960784,-1.960784,3
5.647059,4.235294,40.941176,-0.039216,0.007843,-0.007843,1.960784,1.960784,-1.960784,3
5.647059,4.235294,40.941176,-0.023529,0.007843,0.007843,1.960784,1.960784,-1.960784,3
5.647059,4.235294,40.941176,-0.039216,0.007843,0.007843,1.960784,1.960784,-1.960784,3
5.647059,4.235294,40.941176,-0.039216,0.007843,-0.007843,1.960784,1.960784,-1.960784,3
5.647059,4.235294,40.941176,-0.023529,0.007843,0.007843,1.960784,1.960784,-1.960784,3
5.647059,4.235294,40.941176,-0.039216,0.007843,0.007843,1.960784,1.960784,-1.960784,3
5.647059,4.235294,40.941176,-0.039216,0.007843,-0.007843,1.960784,1.960784,-1.960784,3
5.647059,4.235294,40.941176,-0.039216,0.007843,-0.007843,1.960784,1.960784,-1.960784,3
5.647059,4.235294,40.941176,-0.039216,0.007843,-0.007843,1.960784,1.960784,-1.960784,3
5.647059,4.235294,40.941176,-0.039216,0.007843,-0.007843,1.960784,1.960784,-1.960784,3
5.647059,4.235294,40.941176,-0.023529,0.007843,-0.007843,1.960784,1.960784,-1.960784,3
5.647059,4.235294,40.941176,-0.023529,0.007843,0.007843,1.960784,1.960784,-1.960784,3
5.647059,4.235294,40.941176,-0.039216,0.007843,0.007843,1.960784,1.960784,-1.960784,3
5.647059,4.235294,40.941176,-0.023529,0.007843,0.007843,1.960784,1.960784,-1.960784,3
5.647059,4.235294,40.941176,-0.039216,0.007843,0.007843,1.960784,1.960784,-1.960784,3
5.647059,4.235294,40.941176,-0.023529,0.007843,-0.007843,1.960784,1.960784,-1.960784,3
5.647059,4.235294,40.941176,-0.039216,0.007843,-0.007843,1.960784,1.960784,-1.960784,3
5.647059,4.235294,40.941176,-0.039216,0.007843,0.007843,1.960784,1.960784,-1.960784,3
5.647059,4.235294,40.941176,-0.039216,0.023529,-0.007843,1.960784,1.960784,-1.960784,3
5.647059,4.235294,40.941176,-0.039216,0.007843,-0.007843,1.960784,1.960784,-1.960784,3
5.647059,4.235294,40.941176,-0.039216,0.007843,0.007843,1.960784,1.960784,-1.960784,3
5.647059,4.235294,40.941176,-0.023529,0.007843,0.007843,1.960784,1.960784,-1.960784,3
5.647059,4.235294,40.941176,-0.023529,0.007843,0.007843,1.960784,1.960784,-1.960784,3
5.647059,4.235294,40.941176,-0.039216,0.007843,0.007843,1.960784,1.960784,-1.960784,3
5.647059,4.235294,40.941176,-0.039216,0.007843,0.007843,1.960784,1.960784,-1.960784,3
5.647059,4.235294,40.941176,-0.039216,0.007843,-0.007843,1.960784,1.960784,-1.960784,3
5.647059,4.235294,40.941176,-0.039216,0.007843,-0.007843,1.960784,1.960784,-1.960784,3
5.647059,4.235294,40.941176,-0.039216,0.007843,-0.007843,1.960784,1.960784,-1.960784,3
5.647059,4.235294,40.941176,-0.023529,0.007843,-0.007843,1.960784,1.960784,-1.960784,3
5.647059,4.235294,40.941176,-0.039216,0.007843,0.007843,1.960784,1.960784,-1.960784,3
5.647059,4.235294,40.941176,-0.039216,0.007843,0.007843,1.960784,1.960784,-1.960784,3
5.647059,4.235294,40.941176,-0.023529,0.007843,-0.007843,1.960784,1.960784,-1.960784,3
5.647059,4.235294,40.941176,-0.039216,0.007843,0.007843,1.960784,1.960784,-1.960784,3
5.647059,4.235294,40.941176,-0.023529,0.007843,-0.007843,1.960784,1.960784,-1.960784,3
5.647059,4.235294,40.941176,-0.023529,0.007843,-0.007843,1.960784,1.960784,-1.960784,3
5.647059,4.235294,40.941176,-0.039216,0.007843,0.007843,1.960784,1.960784,-1.960784,3
5.647059,4.235294,40.941176,-0.039216,0.007843,0.007843,1.960784,1.960784,-1.960784,3
5.647059,4.235294,40.941176,-0.023529,0.007843,0.007843,1.960784,1.960784,-1.960784,3
5.647059,4.235294,40.941176,-0.039216,0.007843,0.007843,1.960784,1.960784,-1.960784,3
5.647059,4.235294,40.941176,-0.039216,0.007843,0.007843,1.960784,1.960784,-1.960784,3
5.647059,4.235294,40.941176,-0.039216,0.007843,0.007843,1.960784,1.960784,-1.960784,3
5.647059,4.235294,40.941176,-0.023529,0.007843,0.007843,1.960784,1.960784,-1.960784,3
5.647059,4.235294,40.941176,-0.039216,0.007843,0.007843,1.960784,1.960784,-1.960784,3
5.647059,4.235294,40.941176,-0.039216,0.007843,0.007843,1.960784,1.960784,-1.960784,3
5.647059,4.235294,40.941176,-0.039216,0.007843,-0.007843,1.960784,1.960784,-1.960784,3
5.647059,4.235294,40.941176,-0.039216,0.007843,0.007843,1.960784,1.960784,-1.960784,3
5.647059,4.235294,40.941176,-0.039216,0.007843,-0.007843,1.960784,1.960784,-1.960784,3
5.647059,4.235294,40.941176,-0.039216,0.007843,0.007843,1.960784,1.960784,-1.960784,3
5.647059,4.235294,40.941176,-0.039216,0.007843,0.007843,1.960784,1.960784,-1.960784,3
5.647059,4.235294,40.941176,-0.039216,0.007843,0.007843,1.960784,1.960784,-1.960784,3
5.647059,4.235294,40.941176,-0.023529,0.007843,-0.007843,1.960784,1.960784,-1.960784,3
5.647059,4.235294,40.941176,-0.039216,0.007843,0.007843,1.960784,1.960784,-1.960784,3
5.647059,4.235294,40.941176,-0.039216,0.007843,-0.007843,1.960784,1.960784,-1.960784,3
5.647059,4.235294,40.941176,-0.039216,0.007843,-0.007843,1.960784,1.960784,-1.960784,3
5.647059,4.235294,40.941176,-0.039216,0.007843,0.007843,1.960784,1.960784,-1.960784,3
5.647059,4.235294,40.941176,-0.039216,0.007843,0.007843,1.960784,1.960784,-1.960784,3
5.647059,4.235294,40.941176,-0.023529,0.023529,0.007843,1.960784,1.960784,-1.960784,3
5.647059,4.235294,40.941176,-0.023529,0.007843,-0.007843,1.960784,1.960784,-1.960784,3
5.647059,4.235294,40.941176,-0.039216,0.007843,-0.007843,1.960784,1.960784,-1.960784,3
5.647059,4.235294,40.941176,-0.039216,0.007843,-0.007843,1.960784,1.960784,-1.960784,3
5.647059,4.235294,40.941176,-0.039216,0.007843,-0.007843,1.960784,1.960784,-1.960784,3
5.647059,4.235294,40.941176,-0.039216,0.007843,0.007843,1.960784,1.960784,-1.960784,3
5.647059,4.235294,40.941176,-0.023529,0.007843,-0.007843,1.960784,1.960784,-1.960784,3
5.647059,4.235294,40.941176,-0.039216,0.007843,-0.007843,1.960784,1.960784,-1.960784,3
5.647059,4.235294,40.941176,-0.039216,0.007843,0.007843,1.960784,1.960784,-1.960784,3
5.647059,4.235294,40.941176,-0.023529,0.007843,-0.007843,1.960784,1.960784,-1.960784,3
5.647059,4.235294,40.941176,-0.023529,0.007843,0.007843,1.960784,1.960784,-1.960784,3
5.647059,4.235294,40.941176,-0.039216,0.007843,0.007843,1.960784,1.960784,-1.960784,3
5.647059,4.235294,40.941176,-0.039216,0.007843,-0.007843,1.960784,1.960784,-1.960784,3
5.647059,4.235294,40.941176,-0.023529,0.007843,0.007843,1.960784,1.960784,-1.960784,3
5.647059,4.235294,40.941176,-0.039216,0.007843,0.007843,1.960784,1.960784,-1.960784,3
5.647059,4.235294,40.941176,-0.039216,0.007843,0.007843,1.960784,1.960784,-1.960784,3
5.647059,4.235294,40.941176,-0.039216,0.007843,0.007843,1.960784,1.960784,-1.960784,3
5.647059,4.235294,40.941176,-0.039216,0.007843,0.007843,1.960784,1.960784,-1.960784,3
5.647059,4.235294,40.941176,-0.023529,0.007843,0.007843,1.960784,1.960784,-1.960784,3
5.647059,4.235294,40.941176,-0.023529,0.023529,0.007843,1.960784,1.960784,-1.960784,3
5.647059,4.235294,40.941176,-0.023529,0.007843,0.007843,1.960784,1.960784,-1.960784,3
5.647059,4.235294,40.941176,-0.039216,0.007843,0.007843,1.960784,1.960784,-1.960784,3
5.647059,4.235294,40.941176,-0.023529,0.007843,-0.007843,1.960784,1.960784,-1.960784,3
5.647059,4.235294,40.941176,-0.039216,0.007843,-0.007843,1.960784,1.960784,-1.960784,3
5.647059,4.235294,40.941176,-0.039216,0.007843,0.007843,1.960784,1.960784,-1.960784,3
5.647059,4.235294,40.941176,-0.039216,0.007843,0.007843,1.960784,1.960784,-1.960784,3
5.647059,4.235294,40.941176,-0.039216,0.007843,-0.007843,1.960784,1.960784,-1.960784,3
5.647059,4.235294,40.941176,-0.039216,0.007843,-0.007843,1.960784,1.960784,-1.960784,3
5.647059,4.235294,40.941176,-0.023529,0.007843,-0.007843,1.960784,1.960784,-1.960784,3
5.647059,4.235294,40.941176,-0.039216,0.023529,0.007843,1.960784,1.960784,-1.960784,3
5.647059,4.235294,40.941176,-0.039216,0.007843,0.007843,1.960784,1.960784,-1.960784,3
5.647059,4.235294,40.941176,-0.039216,0.007843,0.007843,1.960784,1.960784,-1.960784,3
5.647059,4.235294,40.941176,-0.039216,0.007843,-0.007843,1.960784,1.960784,-1.960784,3
5.647059,4.235294,40.941176,-0.023529,0.007843,0.007843,1.960784,1.960784,-1.960784,3
5.647059,4.235294,40.941176,-0.023529,0.007843,0.007843,1.960784,1.960784,-1.960784,3
5.647059,4.235294,40.941176,-0.039216,0.007843,0.007843,1.960784,1.960784,-1.960784,3
5.647059,4.235294,40.941176,-0.039216,0.007843,0.007843,1.960784,1.960784,-1.960784,3
5.647059,4.235294,40.941176,-0.023529,0.007843,-0.007843,1.960784,1.960784,-1.960784,3
5.647059,4.235294,40.941176,-0.039216,0.007843,-0.007843,1.960784,1.960784,-1.960784,3
5.647059,4.235294,40.941176,-0.039216,0.007843,0.007843,1.960784,1.960784,-1.960784,3
5.647059,4.235294,40.941176,-0.039216,0.007843,-0.007843,1.960784,1.960784,-1.960784,3
5.647059,4.235294,40.941176,-0.039216,0.007843,0.007843,1.960784,1.960784,-1.960784,3
5.647059,4.235294,40.941176,-0.023529,0.007843,0.007843,1.960784,1.960784,-1.960784,3
5.647059,4.235294,40.941176,-0.039216,0.007843,-0.007843,1.960784,1.960784,-1.960784,3
5.647059,4.235294,40.941176,-0.039216,0.007843,-0.007843,1.960784,1.960784,-1.960784,3
5.647059,4.235294,40.941176,-0.039216,0.007843,0.007843,1.960784,1.960784,-1.960784,3
5.647059,4.235294,40.941176,-0.039216,0.023529,-0.007843,1.960784,1.960784,-1.960784,3
5.647059,4.235294,40.941176,-0.039216,0.007843,-0.007843,1.960784,1.960784,-1.960784,3
5.647059,4.235294,40.941176,-0.039216,0.007843,0.007843,1.960784,1.960784,-1.960784,3
5.647059,4.235294,40.941176,-0.039216,0.007843,-0.007843,1.960784,1.960784,-1.960784,3
5.647059,4.235294,40.941176,-0.039216,0.007843,-0.007843,1.960784,1.960784,-1.960784,3
5.647059,4.235294,40.941176,-0.039216,0.007843,0.007843,1.960784,1.960784,-1.960784,3
5.647059,4.235294,40.941176,-0.023529,0.007843,0.007843,1.960784,1.960784,-1.960784,3
5.647059,4.235294,40.941176,-0.039216,0.007843,0.007843,1.960784,1.960784,-1.960784,3
5.647059,4.235294,40.941176,-0.023529,0.007843,0.007843,1.960784,1.960784,-1.960784,3
5.647059,4.235294,40.941176,-0.023529,0.007843,0.007843,1.960784,1.960784,-1.960784,3
5.647059,4.235294,40.941176,-0.039216,0.007843,0.007843,1.960784,1.960784,-1.960784,3
5.647059,4.235294,40.941176,-0.023529,0.007843,-0.007843,1.960784,1.960784,-1.960784,3
5.647059,4.235294,40.941176,-0.023529,0.007843,0.007843,1.960784,1.960784,-1.960784,3
5.647059,4.235294,40.941176,-0.023529,0.007843,0.007843,1.960784,1.960784,-1.960784,3
5.647059,4.235294,40.941176,-0.039216,0.007843,0.007843,1.960784,1.960784,-1.960784,3
5.647059,4.235294,40.941176,-0.023529,0.007843,0.007843,1.960784,1.960784,-1.960784,3
5.647059,4.235294,40.941176,-0.039216,0.007843,0.007843,1.960784,1.960784,-1.960784,3
5.647059,4.235294,40.941176,-0.039216,0.007843,0.007843,1.960784,1.960784,-1.960784,3
5.647059,4.235294,40.941176,-0.039216,0.007843,-0.007843,1.960784,1.960784,-1.960784,3
5.647059,4.235294,40.941176,-0.039216,0.007843,0.007843,1.960784,1.960784,-1.960784,3
5.647059,4.235294,40.941176,-0.023529,0.007843,-0.007843,1.960784,1.960784,-1.960784,3
5.647059,4.235294,40.941176,-0.023529,0.007843,0.007843,1.960784,1.960784,-1.960784,3
5.647059,4.235294,40.941176,-0.023529,0.007843,-0.007843,1.960784,1.960784,-1.960784,3
5.647059,4.235294,40.941176,-0.039216,0.007843,0.007843,1.960784,1.960784,-1.960784,3
5.647059,4.235294,40.941176,-0.023529,0.007843,0.007843,1.960784,1.960784,-1.960784,3
5.647059,4.235294,40.941176,-0.023529,0.007843,0.007843,1.960784,1.960784,-1.960784,3
5.647059,4.235294,40.941176,-0.039216,0.007843,-0.007843,1.960784,1.960784,-1.960784,3
5.647059,4.235294,40.941176,-0.039216,0.007843,-0.007843,1.960784,1.960784,-1.960784,3
5.647059,4.235294,40.941176,-0.039216,0.007843,-0.007843,1.960784,1.960784,-1.960784,3
5.647059,4.235294,39.529412,-0.039216,0.007843,0.007843,1.960784,1.960784,-1.960784,3
5.647059,4.235294,39.529412,-0.039216,0.007843,0.007843,1.960784,1.960784,-1.960784,3
5.647059,4.235294,39.529412,-0.039216,0.007843,0.007843,1.960784,1.960784,-1.960784,3
5.647059,4.235294,39.529412,-0.023529,0.007843,0.007843,1.960784,1.960784,-1.960784,3
5.647059,4.235294,39.529412,-0.039216,0.007843,0.007843,1.960784,1.960784,-1.960784,3
5.647059,4.235294,39.529412,-0.023529,0.007843,0.007843,1.960784,1.960784,-1.960784,3
5.647059,4.235294,39.529412,-0.039216,0.007843,0.007843,1.960784,1.960784,-1.960784,3
5.647059,4.235294,39.529412,-0.023529,0.023529,-0.007843,1.960784,1.960784,-1.960784,3
5.647059,4.235294,39.529412,-0.023529,0.007843,0.007843,1.960784,1.960784,-1.960784,3
5.647059,4.235294,39.529412,-0.023529,0.007843,-0.007843,1.960784,1.960784,-1.960784,3
5.647059,4.235294,39.529412,-0.039216,0.007843,0.007843,1.960784,1.960784,-1.960784,3
5.647059,4.235294,39.529412,-0.039216,0.023529,0.007843,1.960784,1.960784,-1.960784,3
5.647059,4.235294,39.529412,-0.039216,0.023529,0.007843,1.960784,1.960784,-1.960784,3
5.647059,4.235294,39.529412,-0.039216,0.007843,-0.007843,1.960784,1.960784,-1.960784,3
5.647059,4.235294,39.529412,-0.039216,0.007843,-0.007843,1.960784,1.960784,-1.960784,3
5.647059,4.235294,39.529412,-0.039216,0.007843,0.007843,1.960784,1.960784,-1.960784,3
5.647059,4.235294,39.529412,-0.039216,0.007843,0.007843,1.960784,1.960784,-1.960784,3
5.647059,4.235294,39.529412,-0.039216,0.007843,0.007843,1.960784,1.960784,-1.960784,3
5.647059,4.235294,39.529412,-0.039216,0.023529,-0.007843,1.960784,1.960784,-1.960784,3
5.647059,4.235294,39.529412,-0.039216,0.007843,0.007843,1.960784,1.960784,-1.960784,3
5.647059,4.235294,39.529412,-0.039216,0.007843,-0.007843,1.960784,1.960784,-1.960784,3
5.647059,4.235294,39.529412,-0.039216,0.007843,-0.007843,1.960784,1.960784,-1.960784,3
5.647059,4.235294,39.529412,-0.039216,0.007843,0.007843,1.960784,1.960784,-1.960784,3
5.647059,4.235294,39.529412,-0.039216,0.007843,0.007843,1.960784,1.960784,-1.960784,3
5.647059,4.235294,39.529412,-0.023529,0.007843,0.007843,1.960784,1.960784,-1.960784,3
5.647059,4.235294,39.529412,-0.023529,0.007843,-0.007843,1.960784,1.960784,-1.960784,3
5.647059,4.235294,39.529412,-0.023529,0.007843,0.007843,1.960784,1.960784,-1.960784,3
5.647059,4.235294,39.529412,-0.023529,0.007843,0.007843,1.960784,1.960784,-1.960784,3
5.647059,4.235294,39.529412,-0.023529,0.023529,-0.007843,1.960784,1.960784,-1.960784,3
5.647059,4.235294,39.529412,-0.023529,0.007843,0.007843,1.960784,1.960784,-1.960784,3
5.647059,4.235294,39.529412,-0.039216,0.023529,0.007843,1.960784,1.960784,-1.960784,3
5.647059,4.235294,39.529412,-0.039216,0.007843,0.007843,1.960784,1.960784,-1.960784,3
5.647059,4.235294,39.529412,-0.039216,0.007843,0.007843,1.960784,1.960784,-1.960784,3
5.647059,4.235294,39.529412,-0.023529,0.007843,0.007843,1.960784,1.960784,-1.960784,3
5.647059,4.235294,39.529412,-0.039216,0.007843,-0.007843,1.960784,1.960784,-1.960784,3
5.647059,4.235294,39.529412,-0.039216,0.023529,-0.007843,1.960784,1.960784,-1.960784,3
5.647059,4.235294,39.529412,-0.039216,0.007843,0.007843,1.960784,1.960784,-1.960784,3
5.647059,4.235294,39.529412,-0.039216,0.007843,-0.007843,1.960784,1.960784,-1.960784,3
5.647059,4.235294,39.529412,-0.039216,0.007843,-0.007843,1.960784,1.960784,-1.960784,3
5.647059,4.235294,39.529412,-0.023529,0.007843,0.007843,1.960784,1.960784,-1.960784,3
5.647059,4.235294,39.529412,-0.039216,0.007843,0.007843,1.960784,1.960784,-1.960784,3
5.647059,4.235294,39.529412,-0.039216,0.007843,-0.007843,1.960784,1.960784,-1.960784,3
5.647059,4.235294,39.529412,-0.039216,0.007843,0.007843,1.960784,1.960784,-1.960784,3
5.647059,4.235294,39.529412,-0.039216,0.007843,0.007843,1.960784,1.960784,-1.960784,3
5.647059,4.235294,39.529412,-0.039216,0.007843,-0.007843,1.960784,1.960784,-1.960784,3
5.647059,4.235294,39.529412,-0.039216,0.007843,-0.007843,1.960784,1.960784,-1.960784,3
5.647059,4.235294,39.529412,-0.039216,0.007843,0.007843,1.960784,1.960784,-1.960784,3
5.647059,4.235294,39.529412,-0.023529,0.007843,0.007843,1.960784,1.960784,-1.960784,3
5.647059,4.235294,39.529412,-0.039216,0.007843,0.007843,1.960784,1.960784,-1.960784,3
5.647059,4.235294,39.529412,-0.023529,0.007843,-0.007843,1.960784,1.960784,-1.960784,3
5.647059,4.235294,39.529412,-0.039216,0.007843,0.007843,1.960784,1.960784,-1.960784,3
5.647059,4.235294,39.529412,-0.039216,0.007843,0.007843,1.960784,1.960784,-1.960784,3
5.647059,4.235294,39.529412,-0.039216,0.007843,-0.007843,1.960784,1.960784,-1.960784,3
5.647059,4.235294,39.529412,-0.039216,0.007843,0.007843,1.960784,1.960784,-1.960784,3
5.647059,4.235294,39.529412,-0.023529,0.007843,0.007843,1.960784,1.960784,-1.960784,3
5.647059,4.235294,39.529412,-0.023529,0.007843,0.007843,1.960784,1.960784,-1.960784,3
5.647059,4.235294,39.529412,-0.039216,0.007843,-0.007843,1.960784,1.960784,-1.960784,3
5.647059,4.235294,39.529412,-0.039216,0.007843,-0.007843,1.960784,1.960784,-1.960784,3
5.647059,4.235294,39.529412,-0.023529,0.007843,-0.007843,1.960784,1.960784,-1.960784,3
5.647059,4.235294,39.529412,-0.039216,0.007843,0.007843,1.960784,1.960784,-1.960784,3
5.647059,4.235294,39.529412,-0.023529,0.007843,-0.007843,1.960784,1.960784,-1.960784,3
5.647059,4.235294,39.529412,-0.039216,0.007843,0.007843,1.960784,1.960784,-1.960784,3
5.647059,4.235294,39.529412,-0.039216,0.007843,-0.007843,1.960784,1.960784,-1.960784,3
5.647059,4.235294,39.529412,-0.039216,0.007843,-0.007843,1.960784,1.960784,-1.960784,3
5.647059,4.235294,39.529412,-0.023529,0.007843,0.007843,1.960784,1.960784,-1.960784,3
5.647059,4.235294,39.529412,-0.023529,0.023529,0.007843,1.960784,1.960784,-1.960784,3
5.647059,4.235294,39.529412,-0.039216,0.007843,0.007843,1.960784,1.960784,-1.960784,3
5.647059,4.235294,39.529412,-0.039216,0.007843,0.007843,1.960784,1.960784,-1.960784,3
5.647059,4.235294,39.529412,-0.039216,0.007843,-0.007843,1.960784,1.960784,-1.960784,3
5.647059,4.235294,39.529412,-0.023529,0.007843,0.007843,1.960784,1.960784,-1.960784,3
5.647059,4.235294,39.529412,-0.023529,0.007843,0.007843,1.960784,1.960784,-1.960784,3
5.647059,4.235294,39.529412,-0.039216,0.007843,-0.007843,1.960784,1.960784,-1.960784,3
5.647059,4.235294,39.529412,-0.039216,0.007843,0.007843,1.960784,1.960784,-1.960784,3
5.647059,4.235294,39.529412,-0.023529,0.007843,0.007843,1.960784,1.960784,-1.960784,3
5.647059,4.235294,39.529412,-0.039216,0.007843,0.007843,1.960784,1.960784,-1.960784,3
5.647059,4.235294,39.529412,-0.039216,0.023529,-0.007843,1.960784,1.960784,-1.960784,3
5.647059,4.235294,39.529412,-0.023529,0.007843,-0.007843,1.960784,1.960784,-1.960784,3
5.647059,4.235294,39.529412,-0.039216,0.007843,0.007843,1.960784,1.960784,-1.960784,3
5.647059,4.235294,39.529412,-0.039216,0.023529,0.007843,1.960784,1.960784,-1.960784,3
5.647059,4.235294,39.529412,-0.039216,0.007843,-0.007843,1.960784,1.960784,-1.960784,3
5.647059,4.235294,39.529412,-0.039216,0.007843,0.007843,1.960784,1.960784,-1.960784,3
5.647059,4.235294,39.529412,-0.039216,0.007843,-0.007843,1.960784,1.960784,-1.960784,3
5.647059,4.235294,39.529412,-0.039216,0.007843,0.007843,1.960784,1.960784,-1.960784,3
5.647059,4.235294,39.529412,-0.039216,0.007843,0.007843,1.960784,1.960784,-1.960784,3
5.647059,4.235294,39.529412,-0.023529,0.007843,-0.007843,1.960784,1.960784,-1.960784,3
5.647059,4.235294,39.529412,-0.039216,0.007843,0.007843,1.960784,1.960784,-1.960784,3
5.647059,4.235294,39.529412,-0.039216,0.007843,0.007843,1.960784,1.960784,-1.960784,3
5.647059,4.235294,39.529412,-0.039216,0.007843,0.007843,1.960784,1.960784,-1.960784,3
5.647059,4.235294,39.529412,-0.039216,0.007843,-0.007843,1.960784,1.960784,-1.960784,3
5.647059,4.235294,39.529412,-0.039216,0.007843,0.007843,1.960784,1.960784,-1.960784,3
5.647059,4.235294,39.529412,-0.039216,0.023529,0.007843,1.960784,1.960784,-1.960784,3
5.647059,4.235294,39.529412,-0.039216,0.007843,-0.007843,1.960784,1.960784,-1.960784,3
5.647059,4.235294,39.529412,-0.023529,0.007843,-0.007843,1.960784,1.960784,-1.960784,3
5.647059,4.235294,39.529412,-0.039216,0.007843,-0.007843,1.960784,1.960784,-1.960784,3
5.647059,4.235294,39.529412,-0.039216,0.023529,0.007843,1.960784,1.960784,-1.960784,3
5.647059,4.235294,39.529412,-0.039216,0.007843,-0.007843,1.960784,1.960784,-1.960784,3
5.647059,4.235294,39.529412,-0.023529,0.023529,-0.007843,1.960784,1.960784,-1.960784,3
5.647059,4.235294,39.529412,-0.023529,0.007843,0.007843,1.960784,1.960784,-1.960784,3
5.647059,4.235294,39.529412,-0.039216,0.007843,-0.007843,1.960784,1.960784,-1.960784,3
5.647059,4.235294,39.529412,-0.039216,0.007843,0.007843,1.960784,1.960784,-1.960784,3
5.647059,4.235294,39.529412,-0.023529,0.007843,0.007843,1.960784,1.960784,-1.960784,3
5.647059,4.235294,39.529412,-0.023529,0.023529,-0.007843,1.960784,1.960784,-1.960784,3
5.647059,4.235294,39.529412,-0.039216,0.007843,0.007843,1.960784,1.960784,-1.960784,3
5.647059,4.235294,39.529412,-0.039216,0.007843,0.007843,1.960784,1.960784,-1.960784,3
5.647059,4.235294,39.529412,-0.023529,0.007843,0.007843,1.960784,1.960784,-1.960784,3
5.647059,4.235294,39.529412,-0.039216,0.007843,0.007843,1.960784,1.960784,-1.960784,3
5.647059,4.235294,39.529412,-0.039216,0.007843,-0.007843,1.960784,1.960784,-1.960784,3
5.647059,4.235294,39.529412,-0.039216,0.007843,0.007843,1.960784,1.960784,-1.960784,3
5.647059,4.235294,39.529412,-0.039216,0.007843,0.007843,1.960784,1.960784,-1.960784,3
5.647059,4.235294,39.529412,-0.039216,0.007843,0.007843,1.960784,1.960784,-1.960784,3
5.647059,4.235294,39.529412,-0.039216,0.007843,0.007843,1.960784,1.960784,-1.960784,3
5.647059,4.235294,39.529412,-0.023529,0.023529,0.007843,1.960784,1.960784,-1.960784,3
5.647059,4.235294,39.529412,-0.023529,0.007843,-0.007843,1.960784,1.960784,-1.960784,3
5.647059,4.235294,39.529412,-0.023529,0.007843,-0.007843,1.960784,1.960784,-1.960784,3
5.647059,4.235294,39.529412,-0.039216,0.007843,0.007843,1.960784,1.960784,-1.960784,3
5.647059,4.235294,39.529412,-0.023529,0.007843,0.007843,1.960784,1.960784,-1.960784,3
5.647059,4.235294,39.529412,-0.039216,0.007843,0.007843,1.960784,1.960784,-1.960784,3
5.647059,4.235294,39.529412,-0.039216,0.007843,0.007843,1.960784,1.960784,-1.960784,3
5.647059,4.235294,39.529412,-0.039216,0.007843,-0.007843,1.960784,1.960784,-1.960784,3
5.647059,4.235294,39.529412,-0.023529,0.007843,-0.007843,1.960784,1.960784,-1.960784,3
5.647059,4.235294,39.529412,-0.023529,0.007843,0.007843,1.960784,1.960784,-1.960784,3
5.647059,4.235294,39.529412,-0.039216,0.007843,0.007843,1.960784,1.960784,-1.960784,3
5.647059,4.235294,39.529412,-0.039216,0.007843,0.007843,1.960784,1.960784,-1.960784,3
5.647059,4.235294,39.529412,-0.023529,0.007843,0.007843,1.960784,1.960784,-1.960784,3
5.647059,4.235294,39.529412,-0.023529,0.007843,-0.007843,1.960784,1.960784,-1.960784,3
5.647059,4.235294,39.529412,-0.023529,0.007843,-0.007843,1.960784,1.960784,-1.960784,3
5.647059,4.235294,39.529412,-0.039216,0.007843,0.007843,1.960784,1.960784,-1.960784,3
5.647059,4.235294,39.529412,-0.039216,0.023529,0.007843,1.960784,1.960784,-1.960784,3
5.647059,4.235294,39.529412,-0.039216,0.007843,-0.007843,1.960784,1.960784,-1.960784,3
5.647059,4.235294,39.529412,-0.039216,0.007843,-0.007843,1.960784,1.960784,-1.960784,3
5.647059,4.235294,39.529412,-0.023529,0.007843,0.007843,1.960784,1.960784,-1.960784,3
5.647059,4.235294,39.529412,-0.023529,0.007843,-0.007843,1.960784,1.960784,-1.960784,3
5.647059,4.235294,39.529412,-0.039216,0.007843,0.007843,1.960784,1.960784,-1.960784,3
5.647059,4.235294,39.529412,-0.039216,0.007843,0.007843,1.960784,1.960784,-1.960784,3
5.647059,4.235294,39.529412,-0.023529,0.007843,-0.007843,1.960784,1.960784,-1.960784,3
5.647059,4.235294,39.529412,-0.039216,0.007843,-0.007843,1.960784,1.960784,-1.960784,3
5.647059,4.235294,39.529412,-0.039216,0.007843,0.007843,1.960784,1.960784,-1.960784,3
5.647059,4.235294,39.529412,-0.039216,0.007843,-0.007843,1.960784,1.960784,-1.960784,3
5.647059,4.235294,39.529412,-0.023529,0.007843,-0.007843,1.960784,1.960784,-1.960784,3
5.647059,4.235294,39.529412,-0.023529,0.007843,0.007843,1.960784,1.960784,-1.960784,3
5.647059,4.235294,39.529412,-0.039216,0.007843,0.007843,1.960784,1.960784,-1.960784,3
5.647059,4.235294,39.529412,-0.039216,0.007843,0.007843,1.960784,1.960784,-1.960784,3
5.647059,4.235294,39.529412,-0.039216,0.007843,0.007843,1.960784,1.960784,-1.960784,3
5.647059,4.235294,39.529412,-0.039216,0.007843,-0.007843,1.960784,1.960784,-1.960784,3
5.647059,4.235294,39.529412,-0.023529,0.007843,0.007843,1.960784,1.960784,-1.960784,3
5.647059,4.235294,39.529412,-0.039216,0.007843,0.007843,1.960784,1.960784,-1.960784,3
5.647059,4.235294,39.529412,-0.039216,0.023529,0.007843,1.960784,1.960784,-1.960784,3
5.647059,4.235294,39.529412,-0.039216,0.023529,-0.007843,1.960784,1.960784,-1.960784,3
5.647059,4.235294,39.529412,-0.023529,0.007843,0.007843,1.960784,1.960784,-1.960784,3
5.647059,4.235294,39.529412,-0.039216,0.007843,-0.007843,1.960784,1.960784,-1.960784,3
5.647059,4.235294,39.529412,-0.039216,0.007843,0.007843,1.960784,1.960784,-1.960784,3
5.647059,4.235294,39.529412,-0.023529,0.007843,0.007843,1.960784,1.960784,-1.960784,3
5.647059,4.235294,39.529412,-0.039216,0.007843,-0.007843,1.960784,1.960784,-1.960784,3
5.647059,4.235294,39.529412,-0.039216,0.007843,0.007843,1.960784,1.960784,-1.960784,3
5.647059,4.235294,39.529412,-0.039216,0.007843,0.007843,1.960784,1.960784,-1.960784,3
5.647059,4.235294,39.529412,-0.039216,0.007843,0.007843,1.960784,1.960784,-1.960784,3
5.647059,4.235294,39.529412,-0.023529,0.007843,-0.007843,1.960784,1.960784,-1.960784,3
5.647059,4.235294,39.529412,-0.023529,0.007843,0.007843,1.960784,1.960784,-1.960784,3
5.647059,4.235294,39.529412,-0.023529,0.007843,0.007843,1.960784,1.960784,-1.960784,3
5.647059,4.235294,39.529412,-0.023529,0.007843,0.007843,1.960784,1.960784,-1.960784,3
5.647059,4.235294,39.529412,-0.039216,0.007843,0.007843,1.960784,1.960784,-1.960784,3
5.647059,4.235294,39.529412,-0.039216,0.007843,-0.007843,1.960784,1.960784,-1.960784,3
5.647059,4.235294,39.529412,-0.039216,0.007843,0.007843,1.960784,1.960784,-1.960784,3
5.647059,4.235294,39.529412,-0.023529,0.007843,0.007843,1.960784,1.960784,-1.960784,3
5.647059,4.235294,39.529412,-0.039216,0.007843,-0.007843,1.960784,1.960784,-1.960784,3
5.647059,4.235294,39.529412,-0.039216,0.007843,-0.007843,1.960784,1.960784,-1.960784,3
5.647059,4.235294,39.529412,-0.039216,0.007843,0.007843,1.960784,1.960784,-1.960784,3
5.647059,4.235294,39.529412,-0.039216,0.007843,0.007843,1.960784,1.960784,-1.960784,3
5.647059,4.235294,39.529412,-0.023529,0.007843,0.007843,1.960784,1.960784,-1.960784,3
5.647059,4.235294,39.529412,-0.039216,0.007843,-0.007843,1.960784,1.960784,-1.960784,3
5.647059,4.235294,39.529412,-0.023529,0.007843,-0.007843,1.960784,1.960784,-1.960784,3
5.647059,4.235294,39.529412,-0.039216,0.007843,0.007843,1.960784,1.960784,-1.960784,3
5.647059,4.235294,39.529412,-0.039216,0.007843,0.007843,1.960784,1.960784,-1.960784,3
5.647059,4.235294,39.529412,-0.023529,0.007843,0.007843,1.960784,1.960784,-1.960784,3
5.647059,4.235294,39.529412,-0.023529,0.007843,-0.007843,1.960784,1.960784,-1.960784,3
5.647059,4.235294,39.529412,-0.039216,0.007843,-0.007843,1.960784,1.960784,-1.960784,3
5.647059,4.235294,39.529412,-0.039216,0.007843,-0.007843,1.960784,1.960784,-1.960784,3
5.647059,4.235294,39.529412,-0.039216,0.007843,-0.007843,1.960784,1.960784,-1.960784,3
5.647059,4.235294,39.529412,-0.039216,0.007843,0.007843,1.960784,1.960784,-1.960784,3
5.647059,4.235294,39.529412,-0.039216,0.007843,0.007843,1.960784,1.960784,-1.960784,3
5.647059,4.235294,39.529412,-0.039216,0.007843,0.007843,1.960784,1.960784,-1.960784,3
5.647059,4.235294,39.529412,-0.039216,0.007843,-0.007843,1.960784,1.960784,-1.960784,3
5.647059,4.235294,39.529412,-0.039216,0.007843,0.007843,1.960784,1.960784,-1.960784,3
5.647059,4.235294,39.529412,-0.023529,0.007843,-0.007843,1.960784,1.960784,-1.960784,3
5.647059,4.235294,39.529412,-0.039216,0.007843,-0.007843,1.960784,1.960784,-1.960784,3
5.647059,4.235294,39.529412,-0.039216,0.023529,-0.007843,1.960784,1.960784,-1.960784,3
5.647059,4.235294,39.529412,-0.039216,0.007843,-0.007843,1.960784,1.960784,-1.960784,3
5.647059,4.235294,39.529412,-0.039216,0.007843,0.007843,1.960784,1.960784,-1.960784,3
5.647059,4.235294,39.529412,-0.039216,0.007843,-0.007843,1.960784,1.960784,-1.960784,3
5.647059,4.235294,39.529412,-0.023529,0.007843,0.007843,1.960784,1.960784,-1.960784,3
5.647059,4.235294,39.529412,-0.039216,0.007843,0.007843,1.960784,1.960784,-1.960784,3
5.647059,4.235294,39.529412,-0.023529,0.007843,-0.007843,1.960784,1.960784,-1.960784,3
5.647059,4.235294,39.529412,-0.023529,0.007843,0.007843,1.960784,1.960784,-1.960784,3
5.647059,4.235294,39.529412,-0.023529,0.007843,0.007843,1.960784,1.960784,-1.960784,3
5.647059,4.235294,39.529412,-0.023529,0.007843,-0.007843,1.960784,1.960784,-1.960784,3
5.647059,4.235294,39.529412,-0.023529,0.007843,0.007843,1.960784,1.960784,-1.960784,3
5.647059,4.235294,39.529412,-0.023529,0.007843,-0.007843,1.960784,1.960784,-1.960784,3
5.647059,4.235294,39.529412,-0.039216,0.023529,0.007843,1.960784,1.960784,-1.960784,3
5.647059,4.235294,39.529412,-0.023529,0.007843,0.007843,1.960784,1.960784,-1.960784,3
5.647059,4.235294,39.529412,-0.023529,0.007843,-0.007843,1.960784,1.960784,-1.960784,3
5.647059,4.235294,39.529412,-0.023529,0.007843,-0.007843,1.960784,1.960784,-1.960784,3
5.647059,4.235294,39.529412,-0.039216,0.007843,0.007843,1.960784,1.960784,-1.960784,3
5.647059,4.235294,39.529412,-0.039216,0.023529,-0.007843,1.960784,1.960784,-1.960784,3
5.647059,4.235294,39.529412,-0.039216,0.007843,0.007843,1.960784,1.960784,-1.960784,3
5.647059,4.235294,39.529412,-0.039216,0.007843,-0.007843,1.960784,1.960784,-1.960784,3
5.647059,4.235294,39.529412,-0.039216,0.007843,0.007843,1.960784,1.960784,-1.960784,3
5.647059,4.235294,39.529412,-0.023529,0.007843,0.007843,1.960784,1.960784,-1.960784,3
5.647059,4.235294,39.529412,-0.039216,0.007843,0.007843,1.960784,1.960784,-1.960784,3
5.647059,4.235294,39.529412,-0.039216,0.007843,-0.007843,1.960784,1.960784,-1.960784,3
5.647059,4.235294,39.529412,-0.039216,0.007843,-0.007843,1.960784,1.960784,-1.960784,3
5.647059,4.235294,39.529412,-0.039216,0.007843,-0.007843,1.960784,1.960784,-1.960784,3
5.647059,4.235294,39.529412,-0.039216,0.007843,-0.007843,1.960784,1.960784,-1.960784,3
5.647059,4.235294,39.529412,-0.023529,0.007843,0.007843,1.960784,1.960784,-1.960784,3
5.647059,4.235294,39.529412,-0.039216,0.007843,0.007843,1.960784,1.960784,-1.960784,3
5.647059,4.235294,39.529412,-0.023529,0.007843,0.007843,1.960784,1.960784,-1.960784,3
5.647059,4.235294,39.529412,-0.023529,0.007843,0.007843,1.960784,1.960784,-1.960784,3
5.647059,4.235294,39.529412,-0.039216,0.007843,0.007843,1.960784,1.960784,-1.960784,3
5.647059,4.235294,39.529412,-0.023529,0.007843,0.007843,1.960784,1.960784,-1.960784,3
5.647059,4.235294,39.529412,-0.039216,0.007843,0.007843,1.960784,1.960784,-1.960784,3
5.647059,4.235294,39.529412,-0.023529,0.007843,0.007843,1.960784,1.960784,-1.960784,3
5.647059,4.235294,39.529412,-0.023529,0.007843,0.007843,1.960784,1.960784,-1.960784,3
5.647059,4.235294,39.529412,-0.023529,0.007843,0.007843,1.960784,1.960784,-1.960784,3
5.647059,4.235294,39.529412,-0.039216,0.007843,0.007843,1.960784,1.960784,-1.960784,3
5.647059,4.235294,39.529412,-0.023529,0.007843,0.007843,1.960784,1.960784,-1.960784,3
5.647059,4.235294,39.529412,-0.023529,0.007843,0.007843,1.960784,1.960784,-1.960784,3
5.647059,4.235294,39.529412,-0.039216,0.023529,-0.007843,1.960784,1.960784,-1.960784,3
5.647059,4.235294,39.529412,-0.039216,0.007843,0.007843,1.960784,1.960784,-1.960784,3
5.647059,4.235294,39.529412,-0.023529,0.007843,0.007843,1.960784,1.960784,-1.960784,3
5.647059,4.235294,39.529412,-0.039216,0.007843,0.007843,1.960784,1.960784,-1.960784,3
5.647059,4.235294,39.529412,-0.039216,0.007843,-0.007843,1.960784,1.960784,-1.960784,3
5.647059,4.235294,39.529412,-0.023529,0.007843,-0.007843,1.960784,1.960784,-1.960784,3
5.647059,4.235294,39.529412,-0.023529,0.007843,0.007843,1.960784,1.960784,-1.960784,3
5.647059,4.235294,39.529412,-0.023529,0.007843,-0.007843,1.960784,1.960784,-1.960784,3
5.647059,4.235294,39.529412,-0.023529,0.007843,0.007843,1.960784,1.960784,-1.960784,3
5.647059,4.235294,39.529412,-0.039216,0.007843,0.007843,1.960784,1.960784,-1.960784,3
5.647059,4.235294,39.529412,-0.023529,0.007843,0.007843,1.960784,1.960784,-1.960784,3
5.647059,4.235294,39.529412,-0.039216,0.007843,0.007843,1.960784,1.960784,-1.960784,3
5.647059,4.235294,39.529412,-0.023529,0.007843,0.007843,1.960784,1.960784,-1.960784,3
5.647059,4.235294,39.529412,-0.039216,0.007843,-0.007843,1.960784,-1.960784,-1.960784,3
5.647059,4.235294,39.529412,-0.039216,0.007843,0.007843,1.960784,1.960784,-1.960784,3
5.647059,4.235294,39.529412,-0.039216,0.023529,-0.007843,1.960784,1.960784,-1.960784,3
5.647059,4.235294,39.529412,-0.039216,0.007843,-0.007843,1.960784,1.960784,-1.960784,3
5.647059,4.235294,39.529412,-0.023529,-0.007843,-0.007843,1.960784,1.960784,-1.960784,3
5.647059,4.235294,39.529412,-0.039216,0.007843,-0.007843,1.960784,1.960784,-1.960784,3
5.647059,4.235294,39.529412,-0.023529,0.007843,0.007843,1.960784,1.960784,-1.960784,3
5.647059,4.235294,39.529412,-0.023529,0.007843,0.007843,1.960784,1.960784,-1.960784,3
5.647059,4.235294,39.529412,-0.039216,0.023529,0.007843,1.960784,1.960784,-1.960784,3
5.647059,4.235294,39.529412,-0.039216,0.023529,-0.007843,1.960784,1.960784,-1.960784,3
5.647059,4.235294,39.529412,-0.023529,0.007843,-0.007843,1.960784,1.960784,-1.960784,3
5.647059,4.235294,39.529412,-0.039216,0.007843,0.007843,1.960784,1.960784,-1.960784,3
5.647059,4.235294,39.529412,-0.039216,0.007843,-0.007843,1.960784,1.960784,-1.960784,3
5.647059,4.235294,39.529412,-0.023529,0.007843,0.007843,1.960784,1.960784,-1.960784,3
