Eulerx,Eulery,Eulerz,Accx,Accy,Accz,Gyrox,Gyroy,Gyroz,Label
0,-2.823529,0,-0.007843,-0.007843,-0.007843,-1.960784,-1.960784,-1.960784,Null
0,-2.823529,0,-0.007843,0.007843,-0.007843,-1.960784,-1.960784,-1.960784,Null
0,-2.823529,0,-0.007843,-0.007843,-0.007843,-1.960784,-1.960784,-1.960784,Null
0,-2.823529,0,-0.007843,-0.007843,-0.007843,-1.960784,-1.960784,-1.960784,Null
0,-2.823529,0,-0.007843,-0.007843,-0.007843,-1.960784,-1.960784,-1.960784,Null
0,-2.823529,0,-0.007843,-0.007843,-0.007843,-1.960784,-1.960784,-1.960784,Null
0,-2.823529,0,-0.007843,-0.007843,-0.007843,-1.960784,-1.960784,-1.960784,Null
0,-2.823529,0,-0.007843,-0.007843,-0.007843,-1.960784,-1.960784,-1.960784,Null
0,-2.823529,0,-0.007843,-0.007843,-0.007843,-1.960784,-1.960784,-1.960784,Null
0,-2.823529,0,-0.007843,-0.007843,-0.007843,-1.960784,-1.960784,-1.960784,Null
0,-2.823529,0,-0.007843,-0.007843,-0.007843,-1.960784,-1.960784,-1.960784,Null
0,-2.823529,0,-0.007843,-0.007843,-0.007843,-1.960784,-1.960784,-1.960784,Null
0,-2.823529,0,-0.007843,-0.007843,-0.007843,-1.960784,-1.960784,-1.960784,Null
0,-2.823529,0,-0.007843,-0.007843,-0.007843,-1.960784,-1.960784,-1.960784,Null
0,-2.823529,0,-0.007843,-0.007843,-0.007843,-1.960784,-1.960784,-1.960784,Null
0,-2.823529,0,-0.007843,-0.007843,-0.007843,-1.960784,-1.960784,-1.960784,Null
0,-2.823529,0,-0.007843,-0.007843,-0.007843,-1.960784,-1.960784,-1.960784,Null
0,-2.823529,0,-0.007843,-0.007843,-0.007843,-1.960784,-1.960784,-1.960784,Null
0,-2.823529,0,-0.007843,-0.007843,-0.007843,-1.960784,-1.960784,-1.960784,Null
0,-2.823529,0,-0.007843,-0.007843,-0.007843,-1.960784,-1.960784,-1.960784,Null
0,-2.823529,0,-0.007843,-0.007843,-0.007843,-1.960784,-1.960784,-1.960784,Null
0,-2.823529,0,-0.007843,-0.007843,-0.007843,-1.960784,-1.960784,-1.960784,Null
0,-2.823529,0,-0.007843,-0.007843,-0.007843,-1.960784,-1.960784,-1.960784,Null
0,-2.823529,0,-0.007843,-0.007843,-0.007843,-1.960784,-1.960784,-1.960784,Null
0,-2.823529,0,-0.007843,-0.007843,0.007843,-1.960784,-1.960784,-1.960784,Null
0,-2.823529,0,-0.007843,-0.007843,-0.007843,-1.960784,-1.960784,-1.960784,Null
0,-2.823529,0,-0.007843,-0.007843,-0.007843,-1.960784,-1.960784,-1.960784,Null
0,-2.823529,0,-0.007843,-0.007843,-0.007843,-1.960784,-1.960784,-1.960784,Null
0,-2.823529,0,-0.007843,-0.007843,-0.007843,-1.960784,-1.960784,-1.960784,Null
0,-2.823529,0,-0.007843,-0.007843,-0.007843,-1.960784,-1.960784,-1.960784,Null
0,-2.823529,0,-0.007843,-0.007843,-0.007843,-1.960784,-1.960784,-1.960784,Null
0,-2.823529,0,-0.007843,-0.007843,-0.007843,-1.960784,-1.960784,-1.960784,Null
0,-2.823529,0,-0.007843,-0.007843,-0.007843,-1.960784,-1.960784,-1.960784,Null
0,-2.823529,0,-0.007843,-0.007843,-0.007843,-1.960784,-1.960784,-1.960784,Null
0,-2.823529,0,-0.007843,-0.007843,-0.007843,-1.960784,-1.960784,-1.960784,Null
0,-2.823529,0,-0.007843,-0.007843,-0.007843,-1.960784,-1.960784,-1.960784,Null
0,-2.823529,0,-0.007843,-0.007843,-0.007843,-1.960784,-1.960784,-1.960784,Null
0,-2.823529,0,-0.007843,-0.007843,-0.007843,-1.960784,-1.960784,-1.960784,Null
0,-2.823529,0,-0.007843,-0.007843,-0.007843,-1.960784,-1.960784,-1.960784,Null
0,-2.823529,0,-0.007843,-0.007843,-0.007843,-1.960784,-1.960784,-1.960784,Null
0,-2.823529,0,-0.007843,-0.007843,-0.007843,-1.960784,-1.960784,-1.960784,Null
0,-2.823529,0,-0.007843,-0.007843,-0.007843,-1.960784,-1.960784,-1.960784,Null
0,-2.823529,0,-0.007843,-0.007843,-0.007843,-1.960784,-1.960784,-1.960784,Null
0,-2.823529,0,-0.007843,-0.007843,-0.007843,-1.960784,-1.960784,-1.960784,Null
0,-2.823529,0,-0.007843,-0.007843,-0.007843,-1.960784,-1.960784,-1.960784,Null
0,-2.823529,0,-0.007843,-0.007843,-0.007843,-1.960784,-1.960784,-1.960784,Null
0,-2.823529,0,-0.007843,-0.007843,0.007843,-1.960784,-1.960784,-1.960784,Null
0,-2.823529,0,-0.007843,-0.007843,-0.007843,-1.960784,-1.960784,-1.960784,Null
0,-2.823529,0,-0.007843,-0.007843,-0.007843,-1.960784,-1.960784,-1.960784,Null
0,-2.823529,0,-0.007843,-0.007843,0.007843,-1.960784,-1.960784,-1.960784,Null
0,-2.823529,0,-0.007843,-0.007843,-0.007843,-1.960784,-1.960784,-1.960784,Null
0,-2.823529,0,-0.007843,-0.007843,-0.007843,-1.960784,-1.960784,-1.960784,Null
0,-2.823529,0,-0.007843,-0.007843,-0.007843,-1.960784,-1.960784,-1.960784,Null
0,-2.823529,0,-0.007843,-0.007843,-0.007843,-1.960784,-1.960784,-1.960784,Null
0,-2.823529,0,-0.007843,-0.007843,-0.007843,-1.960784,-1.960784,-1.960784,Null
0,-2.823529,0,-0.007843,-0.007843,-0.007843,-1.960784,-1.960784,-1.960784,Null
0,-2.823529,0,-0.007843,-0.007843,-0.007843,-1.960784,-1.960784,-1.960784,Null
0,-2.823529,0,-0.007843,-0.007843,-0.007843,-1.960784,-1.960784,-1.960784,Null
0,-2.823529,0,-0.007843,-0.007843,-0.007843,-1.960784,-1.960784,-1.960784,Null
0,-2.823529,0,-0.007843,-0.007843,0.007843,-1.960784,-1.960784,-1.960784,Null
0,-2.823529,0,-0.007843,-0.007843,-0.007843,-1.960784,-1.960784,-1.960784,Null
0,-2.823529,0,-0.007843,-0.007843,-0.007843,-1.960784,-1.960784,-1.960784,Null
0,-2.823529,0,-0.007843,-0.007843,-0.007843,-1.960784,-1.960784,-1.960784,Null
0,-2.823529,0,-0.007843,-0.007843,-0.007843,-1.960784,-1.960784,-1.960784,Null
0,-2.823529,0,-0.007843,-0.007843,-0.007843,-1.960784,-1.960784,-1.960784,Null
0,-2.823529,0,-0.007843,-0.007843,-0.007843,-1.960784,-1.960784,-1.960784,Null
0,-2.823529,0,-0.007843,-0.007843,-0.007843,-1.960784,-1.960784,-1.960784,Null
0,-2.823529,0,-0.007843,-0.007843,-0.007843,-1.960784,-1.960784,-1.960784,Null
0,-2.823529,0,-0.007843,-0.007843,-0.007843,-1.960784,-1.960784,-1.960784,Null
0,-2.823529,0,-0.007843,-0.007843,-0.007843,-1.960784,-1.960784,-1.960784,Null
0,-2.823529,0,-0.007843,-0.007843,-0.007843,-1.960784,-1.960784,-1.960784,Null
0,-2.823529,0,-0.007843,-0.007843,-0.007843,-1.960784,-1.960784,-1.960784,Null
0,-2.823529,0,-0.007843,-0.007843,-0.023529,-1.960784,-1.960784,-1.960784,Null
0,-2.823529,0,-0.007843,-0.007843,-0.007843,-1.960784,-1.960784,-1.960784,Null
0,-2.823529,0,-0.007843,-0.007843,-0.007843,-1.960784,-1.960784,-1.960784,Null
0,-2.823529,0,-0.007843,-0.007843,-0.007843,-1.960784,-1.960784,-1.960784,Null
0,-2.823529,0,-0.007843,-0.007843,-0.007843,-1.960784,-1.960784,-1.960784,3
0,-2.823529,0,-0.007843,-0.007843,-0.007843,-1.960784,-1.960784,-1.960784,3
0,-2.823529,0,-0.007843,-0.007843,-0.007843,-1.960784,-1.960784,-1.960784,3
0,-2.823529,0,-0.007843,-0.007843,-0.007843,-1.960784,-1.960784,-1.960784,3
0,-2.823529,0,-0.007843,-0.007843,-0.007843,-1.960784,-1.960784,-1.960784,3
0,-2.823529,0,-0.007843,-0.007843,-0.007843,-1.960784,-1.960784,-1.960784,3
0,-2.823529,0,-0.007843,-0.007843,-0.007843,-1.960784,-1.960784,-1.960784,3
0,-2.823529,0,-0.007843,-0.007843,-0.007843,-1.960784,-1.960784,-1.960784,3
0,-2.823529,0,-0.007843,-0.007843,-0.007843,-1.960784,-1.960784,-1.960784,3
0,-2.823529,0,-0.007843,-0.007843,-0.007843,-1.960784,-1.960784,-1.960784,3
0,-2.823529,0,-0.007843,-0.007843,-0.007843,-1.960784,-1.960784,-1.960784,3
0,-2.823529,0,-0.007843,-0.007843,-0.007843,-1.960784,-1.960784,-1.960784,3
0,-2.823529,0,-0.007843,-0.007843,-0.007843,-1.960784,-1.960784,-1.960784,3
0,-2.823529,0,-0.007843,-0.007843,-0.007843,-1.960784,-1.960784,-1.960784,3
0,-2.823529,0,-0.007843,-0.007843,-0.007843,-1.960784,-1.960784,-1.960784,3
0,-2.823529,0,-0.007843,-0.007843,-0.007843,-1.960784,-1.960784,-1.960784,3
0,-2.823529,0,-0.007843,-0.007843,-0.007843,-1.960784,-1.960784,-1.960784,3
0,-2.823529,0,-0.007843,-0.007843,-0.007843,-1.960784,-1.960784,-1.960784,3
0,-2.823529,0,-0.007843,-0.007843,-0.007843,-1.960784,-1.960784,-1.960784,3
0,-2.823529,0,-0.007843,-0.007843,-0.007843,-1.960784,-1.960784,-1.960784,3
0,-2.823529,0,-0.007843,-0.007843,-0.007843,-1.960784,-1.960784,-1.960784,3
0,-2.823529,0,-0.007843,-0.007843,-0.007843,-1.960784,-1.960784,-1.960784,3
0,-2.823529,0,-0.007843,-0.007843,-0.007843,-1.960784,-1.960784,-1.960784,3
0,-2.823529,0,-0.007843,-0.007843,-0.007843,-1.960784,-1.960784,-1.960784,3
0,-2.823529,0,-0.007843,-0.007843,-0.023529,-1.960784,-1.960784,-1.960784,3
0,-2.823529,0,-0.007843,-0.007843,-0.007843,-1.960784,-1.960784,-1.960784,3
0,-2.823529,0,-0.007843,-0.007843,-0.007843,-1.960784,-1.960784,-1.960784,3
0,-2.823529,0,-0.007843,-0.007843,-0.007843,-1.960784,-1.960784,-1.960784,3
0,-2.823529,0,-0.007843,-0.007843,-0.007843,-1.960784,-1.960784,-1.960784,3
0,-2.823529,0,-0.007843,-0.007843,-0.007843,-1.960784,-1.960784,-1.960784,3
0,-2.823529,0,-0.007843,-0.007843,-0.007843,-1.960784,-1.960784,-1.960784,3
0,-2.823529,0,-0.007843,-0.007843,-0.007843,-1.960784,-1.960784,-1.960784,3
0,-2.823529,0,-0.007843,-0.007843,-0.007843,-1.960784,-1.960784,-1.960784,3
0,-2.823529,0,-0.007843,-0.007843,-0.007843,-1.960784,-1.960784,-1.960784,3
0,-2.823529,0,-0.007843,-0.007843,-0.007843,-1.960784,-1.960784,-1.960784,3
0,-2.823529,0,-0.007843,-0.007843,-0.007843,-1.960784,-1.960784,-1.960784,3
0,-2.823529,0,-0.007843,-0.007843,-0.007843,-1.960784,-1.960784,-1.960784,3
0,-2.823529,0,-0.007843,-0.007843,-0.007843,-1.960784,-1.960784,-1.960784,3
0,-2.823529,0,-0.007843,-0.007843,-0.007843,-1.960784,-1.960784,-1.960784,3
0,-2.823529,0,-0.007843,-0.007843,-0.007843,-1.960784,-1.960784,-1.960784,3
0,-2.823529,0,-0.007843,-0.007843,-0.007843,-1.960784,-1.960784,-1.960784,3
0,-2.823529,0,-0.007843,-0.007843,-0.007843,-1.960784,-1.960784,-1.960784,3
0,-2.823529,0,-0.007843,-0.007843,-0.007843,-1.960784,-1.960784,-1.960784,3
0,-2.823529,0,-0.007843,-0.007843,-0.007843,-1.960784,-1.960784,-1.960784,3
0,-2.823529,0,-0.007843,-0.007843,-0.007843,-1.960784,-1.960784,-1.960784,3
0,-2.823529,0,-0.007843,-0.007843,-0.007843,-1.960784,-1.960784,-1.960784,3
0,-2.823529,0,-0.007843,-0.007843,-0.007843,-1.960784,-1.960784,-1.960784,3
0,-2.823529,0,-0.007843,-0.007843,-0.007843,-1.960784,-1.960784,-1.960784,3
0,-2.823529,0,-0.007843,-0.007843,-0.007843,-1.960784,-1.960784,-1.960784,3
0,-2.823529,0,-0.007843,-0.007843,-0.007843,-1.960784,-1.960784,-1.960784,3
0,-2.823529,0,-0.007843,-0.007843,-0.007843,-1.960784,-1.960784,-1.960784,3
0,-2.823529,0,-0.007843,-0.007843,-0.007843,-1.960784,-1.960784,-1.960784,3
0,-2.823529,0,-0.007843,-0.007843,-0.007843,-1.960784,-1.960784,-1.960784,3
0,-2.823529,0,-0.007843,-0.007843,-0.007843,-1.960784,-1.960784,-1.960784,3
0,-2.823529,0,-0.007843,-0.007843,-0.007843,-1.960784,-1.960784,-1.960784,3
0,-2.823529,0,-0.007843,-0.007843,-0.007843,-1.960784,-1.960784,-1.960784,3
0,-2.823529,0,-0.007843,-0.007843,-0.007843,-1.960784,-1.960784,-1.960784,3
0,-2.823529,0,-0.007843,-0.007843,-0.007843,-1.960784,-1.960784,-1.960784,3
0,-2.823529,0,-0.007843,-0.007843,-0.007843,-1.960784,-1.960784,-1.960784,3
0,-2.823529,0,-0.007843,-0.007843,-0.007843,-1.960784,-1.960784,-1.960784,3
0,-2.823529,0,-0.007843,-0.007843,-0.007843,-1.960784,-1.960784,-1.960784,3
0,-2.823529,0,-0.007843,-0.007843,-0.007843,-1.960784,-1.960784,-1.960784,3
0,-2.823529,0,-0.007843,-0.007843,-0.007843,-1.960784,-1.960784,-1.960784,3
0,-2.823529,0,-0.007843,-0.007843,-0.007843,-1.960784,-1.960784,-1.960784,3
0,-2.823529,0,-0.007843,-0.007843,-0.007843,-1.960784,-1.960784,-1.960784,3
0,-2.823529,0,-0.007843,-0.007843,-0.007843,-1.960784,-1.960784,-1.960784,3
0,-2.823529,0,-0.007843,-0.007843,-0.007843,-1.960784,-1.960784,-1.960784,3
0,-2.823529,0,-0.007843,-0.007843,-0.007843,-1.960784,-1.960784,-1.960784,3
0,-2.823529,0,-0.007843,-0.007843,-0.007843,-1.960784,-1.960784,-1.960784,3
0,-2.823529,0,-0.007843,-0.007843,-0.007843,-1.960784,-1.960784,-1.960784,3
0,-2.823529,0,-0.007843,-0.007843,-0.007843,-1.960784,-1.960784,-1.960784,3
0,-2.823529,0,-0.007843,-0.007843,-0.007843,-1.960784,-1.960784,-1.960784,3
0,-2.823529,0,-0.007843,-0.007843,-0.007843,-1.960784,-1.960784,-1.960784,3
0,-2.823529,0,-0.007843,-0.007843,-0.007843,-1.960784,-1.960784,-1.960784,3
0,-2.823529,0,-0.007843,-0.007843,-0.007843,-1.960784,-1.960784,-1.960784,3
0,-2.823529,0,-0.007843,-0.007843,-0.007843,-1.960784,-1.960784,-1.960784,3
0,-2.823529,0,-0.007843,-0.007843,-0.007843,-1.960784,-1.960784,-1.960784,3
0,-2.823529,0,-0.007843,-0.007843,-0.007843,-1.960784,-1.960784,-1.960784,3
0,-2.823529,0,-0.007843,-0.007843,-0.007843,-1.960784,-1.960784,-1.960784,3
0,-2.823529,0,-0.007843,-0.007843,-0.007843,-1.960784,-1.960784,-1.960784,3
0,-2.823529,0,-0.007843,-0.007843,-0.007843,-1.960784,-1.960784,-1.960784,3
0,-2.823529,0,-0.007843,-0.007843,-0.007843,-1.960784,-1.960784,-1.960784,3
0,-2.823529,0,-0.007843,-0.007843,-0.007843,-1.960784,-1.960784,-1.960784,3
0,-2.823529,0,-0.007843,-0.007843,-0.007843,-1.960784,-1.960784,-1.960784,3
0,-2.823529,0,-0.007843,-0.007843,-0.007843,-1.960784,-1.960784,-1.960784,3
0,-2.823529,0,-0.007843,-0.007843,-0.007843,-1.960784,-1.960784,-1.960784,3
0,-2.823529,0,-0.007843,-0.007843,-0.007843,-1.960784,-1.960784,-1.960784,3
0,-2.823529,0,-0.007843,-0.007843,-0.007843,-1.960784,-1.960784,-1.960784,3
0,-2.823529,0,-0.007843,-0.007843,-0.007843,-1.960784,-1.960784,-1.960784,3
0,-2.823529,0,-0.007843,-0.007843,-0.007843,-1.960784,-1.960784,-1.960784,3
0,-2.823529,0,-0.007843,-0.007843,-0.007843,-1.960784,-1.960784,-1.960784,3
0,-2.823529,0,-0.007843,-0.007843,-0.007843,-1.960784,-1.960784,-1.960784,3
0,-2.823529,0,-0.007843,-0.007843,-0.007843,-1.960784,-1.960784,-1.960784,3
0,-2.823529,0,-0.007843,-0.007843,-0.007843,-1.960784,-1.960784,-1.960784,3
0,-2.823529,0,-0.007843,-0.007843,-0.007843,-1.960784,-1.960784,-1.960784,3
0,-2.823529,0,-0.007843,-0.007843,-0.007843,-1.960784,-1.960784,-1.960784,3
0,-2.823529,0,-0.007843,-0.007843,-0.007843,-1.960784,-1.960784,-1.960784,3
0,-2.823529,0,-0.007843,-0.007843,-0.007843,-1.960784,-1.960784,-1.960784,3
0,-2.823529,0,-0.007843,-0.007843,-0.007843,-1.960784,-1.960784,-1.960784,3
0,-2.823529,0,-0.007843,-0.007843,-0.007843,-1.960784,-1.960784,-1.960784,3
0,-2.823529,0,-0.007843,-0.007843,-0.007843,-1.960784,-1.960784,-1.960784,3
0,-2.823529,0,-0.007843,-0.007843,-0.007843,-1.960784,-1.960784,-1.960784,3
0,-2.823529,0,-0.007843,-0.007843,-0.007843,-1.960784,-1.960784,-1.960784,3
0,-2.823529,0,-0.007843,-0.007843,-0.007843,-1.960784,-1.960784,-1.960784,3
0,-2.823529,0,-0.007843,-0.007843,-0.007843,-1.960784,-1.960784,-1.960784,3
0,-2.823529,0,-0.007843,-0.007843,-0.007843,-1.960784,-1.960784,-1.960784,3
0,-2.823529,0,-0.007843,-0.007843,-0.007843,-1.960784,-1.960784,-1.960784,3
0,-2.823529,0,-0.007843,-0.007843,-0.007843,-1.960784,-1.960784,-1.960784,3
0,-2.823529,0,-0.007843,-0.007843,-0.007843,-1.960784,-1.960784,-1.960784,3
0,-2.823529,0,-0.007843,-0.007843,-0.007843,-1.960784,-1.960784,-1.960784,3
0,-2.823529,0,-0.007843,-0.007843,-0.007843,-1.960784,-1.960784,-1.960784,3
0,-2.823529,0,-0.007843,-0.007843,-0.007843,-1.960784,-1.960784,-1.960784,3
0,-2.823529,0,-0.007843,-0.007843,-0.007843,-1.960784,-1.960784,-1.960784,3
0,-2.823529,0,-0.007843,-0.007843,-0.007843,-1.960784,-1.960784,-1.960784,3
0,-2.823529,0,-0.007843,-0.007843,-0.007843,-1.960784,-1.960784,-1.960784,3
0,-2.823529,0,-0.007843,-0.007843,-0.007843,-1.960784,-1.960784,-1.960784,3
0,-2.823529,0,-0.007843,-0.007843,-0.007843,-1.960784,-1.960784,-1.960784,3
0,-2.823529,0,-0.007843,-0.007843,-0.007843,-1.960784,-1.960784,-1.960784,3
0,-2.823529,0,-0.007843,-0.007843,-0.007843,-1.960784,-1.960784,-1.960784,3
0,-2.823529,0,-0.007843,-0.007843,-0.007843,-1.960784,-1.960784,-1.960784,3
0,-2.823529,0,-0.007843,-0.007843,-0.007843,-1.960784,-1.960784,-1.960784,3
0,-2.823529,0,-0.007843,0.007843,-0.007843,-1.960784,-1.960784,-1.960784,3
0,-2.823529,0,-0.007843,-0.007843,-0.007843,-1.960784,-1.960784,-1.960784,3
0,-2.823529,0,-0.007843,-0.007843,-0.007843,-1.960784,-1.960784,-1.960784,3
0,-2.823529,0,-0.007843,-0.007843,-0.007843,-1.960784,-1.960784,-1.960784,3
0,-2.823529,0,-0.007843,-0.007843,-0.007843,-1.960784,-1.960784,-1.960784,3
0,-2.823529,0,-0.007843,-0.007843,-0.007843,-1.960784,-1.960784,-1.960784,3
0,-2.823529,0,-0.007843,-0.007843,-0.007843,-1.960784,-1.960784,-1.960784,3
0,-2.823529,0,-0.007843,-0.007843,-0.007843,-1.960784,-1.960784,-1.960784,3
0,-2.823529,0,-0.007843,-0.007843,-0.007843,-1.960784,-1.960784,-1.960784,3
0,-2.823529,0,-0.007843,-0.007843,-0.007843,-1.960784,-1.960784,-1.960784,3
0,-2.823529,0,-0.007843,-0.007843,0.007843,-1.960784,-1.960784,-1.960784,3
0,-2.823529,0,-0.007843,-0.007843,-0.007843,-1.960784,-1.960784,-1.960784,3
0,-2.823529,0,-0.007843,-0.007843,-0.007843,-1.960784,-1.960784,-1.960784,3
0,-2.823529,0,-0.007843,-0.007843,-0.007843,-1.960784,-1.960784,-1.960784,3
0,-2.823529,0,-0.007843,-0.007843,-0.007843,-1.960784,-1.960784,-1.960784,3
0,-2.823529,0,-0.007843,-0.007843,-0.007843,-1.960784,-1.960784,-1.960784,3
0,-2.823529,0,-0.007843,-0.007843,-0.007843,-1.960784,-1.960784,-1.960784,3
0,-2.823529,0,-0.007843,-0.007843,-0.007843,-1.960784,-1.960784,-1.960784,3
0,-2.823529,0,-0.007843,-0.007843,-0.007843,-1.960784,-1.960784,-1.960784,3
0,-2.823529,0,-0.007843,-0.007843,-0.007843,-1.960784,-1.960784,-1.960784,3
0,-2.823529,0,-0.007843,-0.007843,-0.007843,-1.960784,-1.960784,-1.960784,3
0,-2.823529,0,-0.007843,-0.007843,-0.007843,-1.960784,-1.960784,-1.960784,3
0,-2.823529,0,-0.007843,-0.007843,-0.007843,-1.960784,-1.960784,-1.960784,3
0,-2.823529,0,-0.007843,-0.007843,-0.007843,-1.960784,-1.960784,-1.960784,3
0,-2.823529,0,-0.007843,-0.007843,-0.007843,-1.960784,-1.960784,-1.960784,3
0,-2.823529,0,-0.007843,-0.007843,-0.007843,-1.960784,-1.960784,-1.960784,3
0,-2.823529,0,-0.007843,-0.007843,-0.007843,-1.960784,-1.960784,-1.960784,3
0,-2.823529,0,-0.007843,-0.007843,-0.007843,-1.960784,-1.960784,-1.960784,3
0,-2.823529,0,-0.007843,-0.007843,-0.007843,-1.960784,-1.960784,-1.960784,3
0,-2.823529,0,-0.007843,-0.007843,-0.007843,-1.960784,-1.960784,-1.960784,3
0,-2.823529,0,-0.007843,-0.007843,-0.007843,-1.960784,-1.960784,-1.960784,3
0,-2.823529,0,-0.007843,-0.007843,-0.007843,-1.960784,-1.960784,-1.960784,3
0,-2.823529,0,-0.007843,-0.007843,-0.007843,-1.960784,-1.960784,-1.960784,3
0,-2.823529,0,-0.007843,-0.007843,-0.007843,-1.960784,-1.960784,-1.960784,3
0,-2.823529,0,-0.007843,0.007843,-0.007843,-1.960784,-1.960784,-1.960784,3
0,-2.823529,0,-0.007843,-0.007843,-0.007843,-1.960784,-1.960784,-1.960784,3
0,-2.823529,0,-0.023529,0.054902,-0.007843,-1.960784,-1.960784,-1.960784,3
0,-2.823529,0,-0.007843,-0.007843,0.007843,-1.960784,-1.960784,-1.960784,3
0,-2.823529,0,-0.007843,-0.007843,0.007843,-1.960784,-1.960784,-1.960784,3
0,-2.823529,0,-0.007843,-0.007843,-0.007843,-1.960784,-1.960784,-1.960784,3
0,-2.823529,0,-0.007843,-0.007843,-0.007843,-1.960784,-1.960784,-1.960784,3
0,-2.823529,0,-0.007843,-0.007843,-0.007843,-1.960784,-1.960784,-1.960784,3
0,-2.823529,0,-0.007843,0.007843,-0.007843,-1.960784,-1.960784,-1.960784,3
0,-2.823529,0,-0.007843,-0.007843,-0.007843,-1.960784,-1.960784,-1.960784,3
0,-2.823529,0,-0.007843,-0.007843,-0.007843,-1.960784,-1.960784,-1.960784,3
0,-2.823529,0,-0.007843,-0.007843,-0.007843,-1.960784,-1.960784,-1.960784,3
0,-2.823529,0,-0.007843,-0.007843,-0.007843,-1.960784,-1.960784,-1.960784,3
0,-2.823529,0,-0.007843,-0.007843,-0.007843,-1.960784,-1.960784,-1.960784,3
0,-2.823529,0,-0.007843,-0.007843,-0.007843,-1.960784,-1.960784,-1.960784,3
0,-2.823529,0,-0.007843,-0.007843,-0.007843,-1.960784,-1.960784,-1.960784,3
0,-2.823529,0,-0.007843,-0.007843,-0.007843,-1.960784,-1.960784,-1.960784,3
0,-2.823529,0,-0.007843,-0.007843,-0.007843,-1.960784,-1.960784,-1.960784,3
0,-2.823529,0,-0.007843,-0.007843,-0.007843,-1.960784,-1.960784,-1.960784,3
0,-2.823529,0,-0.007843,-0.007843,-0.007843,-1.960784,-1.960784,-1.960784,3
0,-2.823529,0,-0.007843,-0.007843,-0.007843,-1.960784,-1.960784,-1.960784,3
0,-2.823529,0,-0.007843,-0.007843,-0.007843,-1.960784,-1.960784,-1.960784,3
0,-2.823529,0,-0.023529,0.117647,0.117647,-9.803922,-1.960784,-1.960784,3
0,-2.823529,0,-0.007843,-0.023529,0.007843,-1.960784,-1.960784,-1.960784,3
0,-2.823529,0,-0.007843,0.023529,0.023529,-1.960784,-1.960784,-1.960784,3
0,-2.823529,0,-0.007843,-0.007843,-0.007843,-1.960784,-1.960784,-1.960784,3
0,-2.823529,0,-0.007843,-0.007843,-0.023529,-1.960784,-1.960784,-1.960784,3
0,-2.823529,0,-0.007843,-0.007843,-0.007843,-1.960784,-1.960784,-1.960784,3
0,-2.823529,0,-0.007843,-0.007843,-0.007843,-1.960784,-1.960784,-1.960784,3
0,-2.823529,0,-0.007843,-0.007843,-0.007843,-1.960784,-1.960784,-1.960784,3
0,-2.823529,0,-0.007843,-0.007843,-0.007843,-1.960784,-1.960784,-1.960784,3
0,-2.823529,0,-0.007843,-0.007843,-0.007843,-1.960784,-1.960784,-1.960784,3
0,-2.823529,0,-0.007843,-0.007843,-0.007843,-1.960784,-1.960784,-1.960784,3
0,-2.823529,0,-0.007843,-0.007843,-0.007843,-1.960784,-1.960784,-1.960784,3
0,-2.823529,0,-0.007843,-0.007843,-0.007843,-1.960784,-1.960784,-1.960784,3
0,-2.823529,0,-0.007843,-0.007843,-0.007843,-1.960784,-1.960784,-1.960784,3
0,-2.823529,0,-0.007843,-0.007843,-0.007843,-1.960784,-1.960784,-1.960784,3
0,-2.823529,0,-0.007843,-0.007843,-0.007843,-1.960784,-1.960784,-1.960784,3
0,-2.823529,0,-0.007843,-0.007843,-0.007843,-1.960784,-1.960784,-1.960784,3
0,-2.823529,0,-0.007843,-0.007843,-0.007843,-1.960784,-1.960784,-1.960784,3
0,-2.823529,0,-0.007843,-0.007843,-0.007843,-1.960784,-1.960784,-1.960784,3
0,-2.823529,0,-0.007843,-0.007843,-0.007843,-1.960784,-1.960784,-1.960784,3
0,-2.823529,0,-0.007843,-0.007843,-0.007843,-1.960784,-1.960784,-1.960784,3
0,-2.823529,0,-0.007843,-0.007843,-0.007843,-1.960784,-1.960784,-1.960784,3
0,-2.823529,0,-0.007843,-0.007843,-0.007843,-1.960784,-1.960784,-1.960784,3
0,-2.823529,0,-0.007843,-0.007843,-0.007843,-1.960784,-1.960784,-1.960784,3
0,-2.823529,0,-0.007843,-0.007843,-0.007843,-1.960784,-1.960784,-1.960784,3
0,-2.823529,0,-0.007843,-0.007843,-0.007843,-1.960784,-1.960784,-1.960784,3
0,-2.823529,0,-0.007843,-0.007843,-0.007843,-1.960784,-1.960784,-1.960784,3
0,-2.823529,0,-0.007843,-0.007843,-0.007843,-1.960784,-1.960784,-1.960784,3
0,-2.823529,0,-0.007843,-0.007843,-0.007843,-1.960784,-1.960784,-1.960784,3
0,-2.823529,0,-0.007843,-0.007843,-0.007843,-1.960784,-1.960784,-1.960784,3
0,-2.823529,0,-0.007843,-0.007843,-0.007843,-1.960784,-1.960784,-1.960784,3
0,-2.823529,0,-0.007843,-0.007843,-0.007843,-1.960784,-1.960784,-1.960784,3
0,-2.823529,0,-0.007843,-0.007843,-0.007843,-1.960784,-1.960784,-1.960784,3
0,-2.823529,0,-0.007843,-0.007843,-0.007843,-1.960784,-1.960784,-1.960784,3
0,-2.823529,0,-0.007843,-0.007843,0.007843,-1.960784,-1.960784,-1.960784,3
0,-2.823529,0,-0.007843,-0.007843,0.007843,-1.960784,-1.960784,-1.960784,3
0,-2.823529,0,-0.007843,-0.007843,-0.007843,-1.960784,-1.960784,-1.960784,3
0,-2.823529,0,-0.007843,-0.007843,-0.007843,-1.960784,-1.960784,-1.960784,3
0,-2.823529,0,-0.007843,-0.007843,-0.007843,-1.960784,-1.960784,-1.960784,3
0,-2.823529,0,-0.007843,-0.007843,-0.007843,-1.960784,-1.960784,-1.960784,3
0,-2.823529,0,-0.007843,-0.007843,-0.007843,-1.960784,-1.960784,-1.960784,3
0,-2.823529,0,-0.007843,-0.007843,-0.007843,-1.960784,-1.960784,-1.960784,3
0,-2.823529,0,-0.007843,-0.007843,-0.007843,-1.960784,-1.960784,-1.960784,3
0,-2.823529,0,-0.007843,-0.007843,-0.007843,-1.960784,-1.960784,-1.960784,3
0,-2.823529,0,-0.007843,-0.007843,-0.007843,-1.960784,-1.960784,-1.960784,3
0,-2.823529,0,-0.007843,-0.007843,-0.007843,-1.960784,-1.960784,-1.960784,3
0,-2.823529,0,-0.007843,-0.007843,-0.007843,-1.960784,-1.960784,-1.960784,3
0,-2.823529,0,-0.007843,-0.007843,-0.007843,-1.960784,-1.960784,-1.960784,3
0,-2.823529,0,-0.007843,-0.007843,-0.007843,-1.960784,-1.960784,-1.960784,3
0,-2.823529,0,-0.007843,-0.007843,-0.007843,-1.960784,-1.960784,-1.960784,3
0,-2.823529,0,-0.007843,-0.007843,-0.007843,-1.960784,-1.960784,-1.960784,3
0,-2.823529,0,-0.007843,-0.007843,-0.007843,-1.960784,-1.960784,-1.960784,3
0,-2.823529,0,-0.007843,-0.007843,-0.007843,-1.960784,-1.960784,-1.960784,3
0,-2.823529,0,-0.007843,-0.007843,-0.007843,-1.960784,-1.960784,-1.960784,3
0,-2.823529,0,-0.007843,-0.007843,-0.007843,-1.960784,-1.960784,-1.960784,3
0,-2.823529,0,-0.007843,-0.007843,-0.007843,-1.960784,-1.960784,-1.960784,3
0,-2.823529,0,-0.007843,-0.007843,-0.007843,-1.960784,-1.960784,-1.960784,3
0,-2.823529,0,-0.007843,-0.007843,-0.007843,-1.960784,-1.960784,-1.960784,3
0,-2.823529,0,-0.007843,-0.007843,-0.007843,-1.960784,-1.960784,-1.960784,3
0,-2.823529,0,-0.007843,-0.007843,-0.007843,-1.960784,-1.960784,-1.960784,3
0,-2.823529,0,-0.007843,-0.007843,-0.007843,-1.960784,-1.960784,-1.960784,3
0,-2.823529,0,-0.007843,-0.007843,-0.007843,-1.960784,-1.960784,-1.960784,3
0,-2.823529,0,-0.007843,-0.007843,-0.007843,-1.960784,-1.960784,-1.960784,3
0,-2.823529,0,-0.007843,-0.007843,-0.007843,-1.960784,-1.960784,-1.960784,3
0,-2.823529,0,-0.007843,-0.007843,-0.007843,-1.960784,-1.960784,-1.960784,3
0,-2.823529,0,-0.007843,-0.007843,0.023529,-1.960784,-1.960784,-1.960784,3
0,-2.823529,0,-0.007843,-0.007843,-0.007843,-1.960784,-1.960784,-1.960784,3
0,-2.823529,0,-0.007843,-0.007843,-0.007843,-1.960784,-1.960784,-1.960784,3
0,-2.823529,0,-0.007843,-0.007843,-0.007843,-1.960784,-1.960784,-1.960784,3
0,-2.823529,0,-0.007843,-0.007843,-0.007843,-1.960784,-1.960784,-1.960784,3
0,-2.823529,0,-0.007843,-0.007843,-0.007843,-1.960784,-1.960784,-1.960784,3
0,-2.823529,0,-0.007843,-0.007843,-0.007843,-1.960784,-1.960784,-1.960784,3
0,-2.823529,0,-0.007843,-0.007843,-0.007843,-1.960784,-1.960784,-1.960784,3
0,-2.823529,0,-0.007843,-0.007843,0.007843,-1.960784,-1.960784,-1.960784,3
0,-2.823529,0,-0.007843,-0.007843,-0.007843,-1.960784,-1.960784,-1.960784,3
0,-2.823529,0,-0.007843,-0.007843,-0.007843,-1.960784,-1.960784,-1.960784,3
0,-2.823529,0,-0.007843,-0.007843,-0.007843,-1.960784,-1.960784,-1.960784,3
0,-2.823529,0,-0.007843,-0.007843,-0.007843,-1.960784,-1.960784,-1.960784,3
0,-2.823529,0,-0.007843,-0.007843,-0.007843,-1.960784,-1.960784,-1.960784,3
0,-2.823529,0,-0.007843,-0.007843,-0.007843,-1.960784,-1.960784,-1.960784,3
0,-2.823529,0,-0.007843,-0.007843,-0.007843,-1.960784,-1.960784,-1.960784,3
0,-2.823529,0,-0.007843,-0.007843,-0.007843,-1.960784,-1.960784,-1.960784,3
0,-2.823529,0,-0.007843,-0.007843,-0.007843,-1.960784,-1.960784,-1.960784,3
0,-2.823529,0,-0.007843,-0.007843,-0.007843,-1.960784,-1.960784,-1.960784,3
0,-2.823529,0,-0.007843,-0.007843,-0.007843,-1.960784,-1.960784,-1.960784,3
0,-2.823529,0,-0.007843,-0.007843,-0.007843,-1.960784,-1.960784,-1.960784,3
0,-2.823529,0,-0.007843,-0.007843,-0.007843,-1.960784,-1.960784,-1.960784,3
0,-2.823529,0,-0.007843,-0.007843,-0.007843,-1.960784,-1.960784,-1.960784,3
0,-2.823529,0,-0.007843,-0.007843,-0.007843,-1.960784,-1.960784,-1.960784,3
0,-2.823529,0,-0.007843,-0.007843,-0.007843,-1.960784,-1.960784,-1.960784,3
0,-2.823529,0,-0.007843,-0.007843,-0.007843,-1.960784,-1.960784,-1.960784,3
0,-2.823529,0,-0.007843,-0.007843,-0.007843,-1.960784,-1.960784,-1.960784,3
0,-2.823529,0,-0.007843,-0.007843,-0.007843,-1.960784,-1.960784,-1.960784,3
0,-2.823529,0,-0.007843,-0.007843,-0.007843,-1.960784,-1.960784,-1.960784,3
0,-2.823529,0,-0.007843,-0.007843,-0.007843,-1.960784,-1.960784,-1.960784,3
0,-2.823529,0,-0.007843,-0.007843,-0.007843,-1.960784,-1.960784,-1.960784,3
0,-2.823529,0,-0.007843,-0.007843,-0.007843,-1.960784,-1.960784,-1.960784,3
0,-2.823529,0,-0.007843,-0.007843,0.007843,-1.960784,-1.960784,-1.960784,3
0,-2.823529,0,-0.007843,-0.007843,-0.007843,-1.960784,-1.960784,-1.960784,3
0,-2.823529,0,-0.007843,-0.007843,-0.007843,-1.960784,-1.960784,-1.960784,3
0,-2.823529,0,-0.007843,-0.007843,-0.007843,-1.960784,-1.960784,-1.960784,3
0,-2.823529,0,-0.007843,-0.007843,-0.007843,-1.960784,-1.960784,-1.960784,3
0,-2.823529,0,-0.007843,-0.007843,-0.007843,-1.960784,-1.960784,-1.960784,3
0,-2.823529,0,-0.007843,-0.007843,-0.007843,-1.960784,-1.960784,-1.960784,3
0,-2.823529,0,-0.007843,-0.007843,-0.007843,-1.960784,-1.960784,-1.960784,3
0,-2.823529,0,-0.007843,-0.007843,-0.007843,-1.960784,-1.960784,-1.960784,3
0,-2.823529,0,-0.007843,-0.007843,-0.007843,-1.960784,-1.960784,-1.960784,3
0,-2.823529,0,-0.007843,-0.007843,-0.007843,-1.960784,-1.960784,-1.960784,3
0,-2.823529,0,-0.007843,-0.007843,-0.007843,-1.960784,-1.960784,-1.960784,3
0,-2.823529,0,-0.007843,-0.007843,0.007843,-1.960784,-1.960784,-1.960784,3
0,-2.823529,0,-0.007843,-0.007843,-0.007843,-1.960784,-1.960784,-1.960784,3
0,-2.823529,0,-0.007843,-0.007843,-0.007843,-1.960784,-1.960784,-1.960784,3
0,-2.823529,0,-0.007843,-0.007843,-0.007843,-1.960784,-1.960784,-1.960784,3
0,-2.823529,0,-0.007843,-0.007843,-0.007843,-1.960784,-1.960784,-1.960784,3
0,-2.823529,0,-0.007843,-0.007843,-0.007843,-1.960784,-1.960784,-1.960784,3
0,-2.823529,0,-0.007843,-0.007843,-0.007843,-1.960784,-1.960784,-1.960784,3
0,-2.823529,0,-0.007843,-0.007843,-0.007843,-1.960784,-1.960784,-1.960784,3
0,-2.823529,0,-0.007843,-0.007843,-0.007843,-1.960784,-1.960784,-1.960784,3
0,-2.823529,0,-0.007843,-0.007843,-0.007843,-1.960784,-1.960784,-1.960784,3
0,-2.823529,0,-0.007843,-0.007843,-0.007843,-1.960784,-1.960784,-1.960784,3
0,-2.823529,0,-0.007843,-0.007843,0.007843,-1.960784,-1.960784,-1.960784,3
0,-2.823529,0,-0.007843,-0.007843,-0.007843,-1.960784,-1.960784,-1.960784,3
0,-2.823529,0,-0.007843,-0.007843,-0.007843,-1.960784,-1.960784,-1.960784,3
0,-2.823529,0,-0.007843,-0.007843,-0.007843,-1.960784,-1.960784,-1.960784,3
0,-2.823529,0,-0.007843,-0.007843,-0.007843,-1.960784,-1.960784,-1.960784,3
0,-2.823529,0,-0.007843,-0.007843,-0.007843,-1.960784,-1.960784,-1.960784,3
0,-2.823529,0,-0.007843,-0.007843,-0.007843,-1.960784,-1.960784,-1.960784,3
0,-2.823529,0,-0.007843,-0.007843,-0.007843,-1.960784,-1.960784,-1.960784,3
0,-2.823529,0,-0.007843,-0.007843,-0.007843,-1.960784,-1.960784,-1.960784,3
0,-2.823529,0,-0.007843,-0.007843,-0.007843,-1.960784,-1.960784,-1.960784,3
0,-2.823529,0,-0.007843,-0.007843,-0.007843,-1.960784,-1.960784,-1.960784,3
0,-2.823529,0,-0.007843,-0.007843,-0.007843,-1.960784,-1.960784,-1.960784,3
0,-2.823529,0,-0.007843,-0.007843,-0.007843,-1.960784,-1.960784,-1.960784,3
0,-2.823529,0,-0.007843,-0.007843,-0.007843,-1.960784,-1.960784,-1.960784,3
0,-2.823529,0,-0.007843,-0.007843,-0.007843,-1.960784,-1.960784,-1.960784,3
0,-2.823529,0,-0.007843,-0.007843,-0.007843,-1.960784,-1.960784,-1.960784,3
0,-2.823529,0,-0.007843,-0.007843,-0.007843,-1.960784,-1.960784,-1.960784,3
0,-2.823529,0,-0.007843,-0.007843,-0.007843,-1.960784,-1.960784,-1.960784,3
0,-2.823529,0,-0.007843,-0.007843,-0.007843,-1.960784,-1.960784,-1.960784,3
0,-2.823529,0,-0.007843,-0.007843,-0.007843,-1.960784,-1.960784,-1.960784,3
0,-2.823529,0,-0.007843,-0.007843,-0.007843,-1.960784,-1.960784,-1.960784,3
0,-2.823529,0,-0.007843,-0.007843,-0.007843,-1.960784,-1.960784,-1.960784,3
0,-2.823529,0,-0.007843,-0.007843,-0.007843,-1.960784,-1.960784,-1.960784,3
0,-2.823529,0,-0.007843,-0.007843,-0.007843,-1.960784,-1.960784,-1.960784,3
0,-2.823529,0,-0.007843,-0.007843,-0.007843,-1.960784,-1.960784,-1.960784,3
0,-2.823529,0,-0.007843,-0.007843,-0.007843,-1.960784,-1.960784,-1.960784,3
0,-2.823529,0,-0.007843,-0.007843,-0.007843,-1.960784,-1.960784,-1.960784,3
0,-2.823529,0,-0.007843,-0.007843,-0.007843,-1.960784,-1.960784,-1.960784,3
0,-2.823529,0,-0.007843,-0.007843,-0.007843,-1.960784,-1.960784,-1.960784,3
0,-2.823529,0,-0.007843,-0.007843,-0.007843,-1.960784,-1.960784,-1.960784,3
0,-2.823529,0,-0.007843,-0.007843,-0.007843,-1.960784,-1.960784,-1.960784,3
0,-2.823529,0,-0.007843,-0.007843,-0.007843,-1.960784,-1.960784,-1.960784,3
0,-2.823529,0,-0.007843,-0.007843,-0.007843,-1.960784,-1.960784,-1.960784,3
0,-2.823529,0,-0.007843,-0.007843,-0.007843,-1.960784,-1.960784,-1.960784,3
0,-2.823529,0,-0.007843,-0.007843,-0.007843,-1.960784,-1.960784,-1.960784,3
0,-2.823529,0,-0.007843,-0.007843,-0.007843,-1.960784,-1.960784,-1.960784,3
0,-2.823529,0,-0.007843,-0.007843,-0.007843,-1.960784,-1.960784,-1.960784,3
0,-2.823529,0,-0.007843,-0.007843,-0.007843,-1.960784,-1.960784,-1.960784,3
0,-2.823529,0,-0.007843,-0.007843,-0.007843,-1.960784,-1.960784,-1.960784,3
0,-2.823529,0,-0.007843,-0.007843,-0.007843,-1.960784,-1.960784,-1.960784,3
0,-2.823529,0,-0.007843,-0.007843,-0.007843,-1.960784,-1.960784,-1.960784,3
0,-2.823529,0,-0.007843,-0.007843,-0.007843,-1.960784,-1.960784,-1.960784,3
0,-2.823529,0,-0.007843,-0.007843,-0.007843,-1.960784,-1.960784,-1.960784,3
0,-2.823529,0,-0.007843,-0.007843,-0.007843,-1.960784,-1.960784,-1.960784,3
0,-2.823529,0,-0.007843,-0.007843,-0.007843,-1.960784,-1.960784,-1.960784,3
0,-2.823529,0,-0.007843,-0.007843,-0.007843,-1.960784,-1.960784,-1.960784,3
0,-2.823529,0,-0.007843,-0.007843,-0.007843,-1.960784,-1.960784,-1.960784,3
0,-2.823529,0,-0.007843,-0.007843,-0.007843,-1.960784,-1.960784,-1.960784,3
0,-2.823529,0,-0.007843,-0.007843,-0.007843,-1.960784,-1.960784,-1.960784,3
0,-2.823529,0,-0.007843,-0.007843,-0.007843,-1.960784,-1.960784,-1.960784,3
0,-2.823529,0,-0.007843,-0.007843,-0.007843,-1.960784,-1.960784,-1.960784,3
0,-2.823529,0,-0.007843,-0.007843,-0.007843,-1.960784,-1.960784,-1.960784,3
0,-2.823529,0,-0.007843,-0.007843,-0.007843,-1.960784,-1.960784,-1.960784,3
0,-2.823529,0,-0.007843,-0.007843,-0.007843,-1.960784,-1.960784,-1.960784,3
0,-2.823529,0,-0.007843,-0.007843,-0.007843,-1.960784,-1.960784,-1.960784,3
0,-2.823529,0,-0.007843,-0.007843,-0.007843,-1.960784,-1.960784,-1.960784,3
0,-2.823529,0,-0.007843,-0.007843,-0.007843,-1.960784,-1.960784,-1.960784,3
0,-2.823529,0,-0.007843,-0.007843,-0.007843,-1.960784,-1.960784,-1.960784,3
0,-2.823529,0,-0.007843,-0.007843,-0.007843,-1.960784,-1.960784,-1.960784,3
0,-2.823529,0,-0.007843,-0.007843,-0.007843,-1.960784,-1.960784,-1.960784,3
0,-2.823529,0,-0.007843,-0.007843,-0.007843,-1.960784,-1.960784,-1.960784,3
0,-2.823529,0,-0.007843,-0.007843,-0.007843,-1.960784,-1.960784,-1.960784,3
0,-2.823529,0,-0.007843,-0.007843,-0.007843,-1.960784,-1.960784,-1.960784,3
0,-2.823529,0,-0.007843,-0.007843,-0.007843,-1.960784,-1.960784,-1.960784,3
0,-2.823529,0,-0.007843,-0.007843,-0.007843,-1.960784,-1.960784,-1.960784,3
0,-2.823529,0,-0.007843,-0.007843,-0.007843,-1.960784,-1.960784,-1.960784,3
0,-2.823529,0,-0.007843,-0.007843,-0.007843,-1.960784,-1.960784,-1.960784,3
0,-2.823529,0,-0.007843,-0.007843,-0.007843,-1.960784,-1.960784,-1.960784,3
0,-2.823529,0,-0.007843,-0.007843,-0.007843,-1.960784,-1.960784,-1.960784,3
0,-2.823529,0,-0.007843,-0.007843,-0.007843,-1.960784,-1.960784,-1.960784,3
0,-2.823529,0,-0.007843,-0.007843,-0.007843,-1.960784,-1.960784,-1.960784,3
0,-2.823529,0,-0.007843,-0.007843,-0.007843,-1.960784,-1.960784,-1.960784,3
0,-2.823529,0,-0.007843,-0.007843,-0.007843,-1.960784,-1.960784,-1.960784,3
0,-2.823529,0,-0.007843,-0.007843,-0.007843,-1.960784,-1.960784,-1.960784,3
0,-2.823529,0,-0.007843,-0.007843,-0.007843,-1.960784,-1.960784,-1.960784,3
0,-2.823529,0,-0.007843,-0.007843,-0.007843,-1.960784,-1.960784,-1.960784,3
0,-2.823529,0,-0.007843,-0.007843,0.007843,-1.960784,-1.960784,-1.960784,3
0,-2.823529,0,-0.007843,-0.007843,-0.007843,-1.960784,-1.960784,-1.960784,3
0,-2.823529,0,-0.007843,-0.007843,-0.007843,-1.960784,-1.960784,-1.960784,3
0,-2.823529,0,-0.007843,-0.007843,0.007843,-1.960784,-1.960784,-1.960784,3
0,-2.823529,0,-0.007843,-0.007843,-0.007843,-1.960784,-1.960784,-1.960784,3
0,-2.823529,0,-0.007843,0.007843,-0.007843,-1.960784,-1.960784,-1.960784,3
0,-2.823529,0,-0.007843,-0.007843,-0.007843,-1.960784,-1.960784,-1.960784,3
0,-2.823529,0,-0.007843,-0.007843,0.007843,-1.960784,-1.960784,-1.960784,3
0,-2.823529,0,-0.007843,-0.007843,-0.007843,-1.960784,-1.960784,-1.960784,3
0,-2.823529,0,-0.007843,-0.007843,-0.007843,-1.960784,-1.960784,-1.960784,3
0,-2.823529,0,-0.007843,-0.007843,-0.007843,-1.960784,-1.960784,-1.960784,3
0,-2.823529,0,-0.007843,-0.007843,-0.007843,-1.960784,-1.960784,-1.960784,3
0,-2.823529,0,-0.007843,-0.007843,-0.007843,-1.960784,-1.960784,-1.960784,3
0,-2.823529,0,-0.007843,-0.007843,-0.007843,-1.960784,-1.960784,-1.960784,3
0,-2.823529,0,-0.007843,-0.007843,-0.007843,-1.960784,-1.960784,-1.960784,3
0,-2.823529,0,-0.007843,-0.007843,-0.007843,-1.960784,-1.960784,-1.960784,3
0,-2.823529,0,-0.007843,-0.007843,-0.007843,-1.960784,-1.960784,-1.960784,3
0,-2.823529,0,-0.007843,-0.007843,-0.007843,-1.960784,-1.960784,-1.960784,3
0,-2.823529,0,-0.007843,-0.007843,-0.007843,-1.960784,-1.960784,-1.960784,3
0,-2.823529,0,-0.007843,-0.007843,-0.007843,-1.960784,-1.960784,-1.960784,3
0,-2.823529,0,-0.007843,-0.007843,-0.007843,-1.960784,-1.960784,-1.960784,3
0,-2.823529,0,-0.007843,-0.007843,-0.007843,-1.960784,-1.960784,-1.960784,3
0,-2.823529,0,-0.007843,-0.007843,-0.007843,-1.960784,-1.960784,-1.960784,3
0,-2.823529,0,-0.007843,-0.007843,-0.007843,-1.960784,-1.960784,-1.960784,3
0,-2.823529,0,-0.007843,-0.007843,-0.007843,-1.960784,-1.960784,-1.960784,3
0,-2.823529,0,-0.007843,-0.007843,-0.007843,-1.960784,-1.960784,-1.960784,3
0,-2.823529,0,-0.007843,-0.007843,-0.007843,-1.960784,-1.960784,-1.960784,3
0,-2.823529,0,-0.007843,-0.007843,-0.007843,-1.960784,-1.960784,-1.960784,3
0,-2.823529,0,-0.007843,-0.007843,-0.007843,-1.960784,-1.960784,-1.960784,3
0,-2.823529,0,-0.007843,-0.007843,-0.007843,-1.960784,-1.960784,-1.960784,3
0,-2.823529,0,-0.007843,-0.007843,-0.007843,-1.960784,-1.960784,-1.960784,3
0,-2.823529,0,-0.007843,-0.007843,-0.007843,-1.960784,-1.960784,-1.960784,3
0,-2.823529,0,-0.007843,-0.007843,-0.007843,-1.960784,-1.960784,-1.960784,3
0,-2.823529,0,-0.007843,-0.007843,-0.007843,-1.960784,-1.960784,-1.960784,3
0,-2.823529,0,-0.007843,-0.007843,-0.007843,-1.960784,-1.960784,-1.960784,3
0,-2.823529,0,-0.007843,-0.007843,-0.007843,-1.960784,-1.960784,-1.960784,3
0,-2.823529,0,-0.007843,-0.007843,-0.007843,-1.960784,-1.960784,-1.960784,3
0,-2.823529,0,-0.007843,-0.007843,-0.007843,-1.960784,-1.960784,-1.960784,3
0,-2.823529,0,-0.007843,-0.007843,-0.007843,-1.960784,-1.960784,-1.960784,3
0,-2.823529,0,-0.007843,-0.007843,-0.007843,-1.960784,-1.960784,-1.960784,3
0,-2.823529,0,-0.007843,-0.007843,-0.007843,-1.960784,-1.960784,-1.960784,3
0,-2.823529,0,-0.007843,-0.007843,-0.007843,-1.960784,-1.960784,-1.960784,3
0,-2.823529,0,-0.007843,-0.007843,-0.007843,-1.960784,-1.960784,-1.960784,3
0,-2.823529,0,-0.007843,-0.007843,-0.007843,-1.960784,-1.960784,-1.960784,3
0,-2.823529,0,-0.007843,-0.007843,-0.007843,-1.960784,-1.960784,-1.960784,3
0,-2.823529,0,-0.007843,-0.007843,-0.007843,-1.960784,-1.960784,-1.960784,3
0,-2.823529,0,-0.007843,-0.007843,-0.007843,-1.960784,-1.960784,-1.960784,3
0,-2.823529,0,-0.007843,-0.007843,-0.007843,-1.960784,-1.960784,-1.960784,3
0,-2.823529,0,-0.007843,-0.007843,-0.007843,-1.960784,-1.960784,-1.960784,3
0,-2.823529,0,-0.007843,-0.007843,-0.007843,-1.960784,-1.960784,-1.960784,3
0,-2.823529,0,-0.007843,-0.007843,-0.007843,-1.960784,-1.960784,-1.960784,3
0,-2.823529,0,-0.007843,-0.007843,-0.007843,-1.960784,-1.960784,-1.960784,3
0,-2.823529,0,-0.007843,-0.007843,-0.007843,-1.960784,-1.960784,-1.960784,3
0,-2.823529,0,-0.007843,-0.007843,-0.007843,-1.960784,-1.960784,-1.960784,3
0,-2.823529,0,-0.007843,-0.007843,-0.007843,-1.960784,-1.960784,-1.960784,3
0,-2.823529,0,-0.007843,-0.007843,-0.007843,-1.960784,-1.960784,-1.960784,3
0,-2.823529,0,-0.007843,-0.007843,-0.007843,-1.960784,-1.960784,-1.960784,3
0,-2.823529,0,-0.007843,0.007843,-0.007843,-1.960784,-1.960784,-1.960784,3
0,-2.823529,0,-0.007843,-0.007843,-0.007843,-1.960784,-1.960784,-1.960784,3
0,-2.823529,0,-0.007843,-0.007843,-0.007843,-1.960784,-1.960784,-1.960784,3
0,-2.823529,0,-0.007843,-0.007843,-0.007843,-1.960784,-1.960784,-1.960784,3
0,-2.823529,0,-0.007843,-0.007843,-0.007843,-1.960784,-1.960784,-1.960784,3
0,-2.823529,0,-0.007843,-0.007843,-0.007843,-1.960784,-1.960784,-1.960784,3
0,-2.823529,0,-0.007843,-0.007843,-0.007843,-1.960784,-1.960784,-1.960784,3
0,-2.823529,0,-0.007843,-0.007843,-0.007843,-1.960784,-1.960784,-1.960784,3
0,-2.823529,0,-0.007843,-0.007843,-0.007843,-1.960784,-1.960784,-1.960784,3
0,-2.823529,0,-0.007843,-0.007843,-0.007843,-1.960784,-1.960784,-1.960784,3
0,-2.823529,0,-0.007843,-0.007843,0.007843,-1.960784,-1.960784,-1.960784,3
0,-2.823529,0,-0.007843,-0.007843,-0.007843,-1.960784,-1.960784,-1.960784,3
0,-2.823529,0,-0.007843,-0.007843,-0.007843,-1.960784,-1.960784,-1.960784,3
0,-2.823529,0,-0.007843,-0.007843,-0.007843,-1.960784,-1.960784,-1.960784,3
0,-2.823529,0,-0.007843,-0.007843,-0.007843,-1.960784,-1.960784,-1.960784,3
0,-2.823529,0,-0.007843,-0.007843,-0.007843,-1.960784,-1.960784,-1.960784,3
0,-2.823529,0,-0.007843,-0.007843,-0.007843,-1.960784,-1.960784,-1.960784,3
0,-2.823529,0,-0.007843,-0.007843,-0.007843,-1.960784,-1.960784,-1.960784,3
0,-2.823529,0,-0.007843,-0.007843,-0.007843,-1.960784,-1.960784,-1.960784,3
0,-2.823529,0,-0.007843,-0.007843,-0.007843,-1.960784,-1.960784,-1.960784,3
0,-2.823529,0,-0.007843,-0.007843,-0.007843,-1.960784,-1.960784,-1.960784,3
0,-2.823529,0,-0.007843,-0.007843,-0.007843,-1.960784,-1.960784,-1.960784,3
0,-2.823529,0,-0.007843,-0.007843,-0.007843,-1.960784,-1.960784,-1.960784,3
0,-2.823529,0,-0.007843,-0.007843,-0.007843,-1.960784,-1.960784,-1.960784,3
0,-2.823529,0,-0.007843,-0.007843,-0.007843,-1.960784,-1.960784,-1.960784,3
0,-2.823529,0,-0.007843,-0.007843,-0.007843,-1.960784,-1.960784,-1.960784,3
0,-2.823529,0,-0.007843,-0.007843,-0.007843,-1.960784,-1.960784,-1.960784,3
0,-2.823529,0,-0.007843,-0.007843,-0.007843,-1.960784,-1.960784,-1.960784,3
0,-2.823529,0,-0.007843,-0.007843,-0.007843,-1.960784,-1.960784,-1.960784,3
0,-2.823529,0,-0.007843,-0.007843,-0.023529,-1.960784,-1.960784,-1.960784,3
0,-2.823529,0,-0.007843,-0.007843,-0.007843,-1.960784,-1.960784,-1.960784,3
0,-2.823529,0,-0.007843,-0.007843,-0.007843,-1.960784,-1.960784,-1.960784,3
0,-2.823529,0,-0.007843,-0.007843,-0.007843,-1.960784,-1.960784,-1.960784,3
0,-2.823529,0,-0.007843,-0.007843,-0.007843,-1.960784,-1.960784,-1.960784,3
0,-2.823529,0,-0.007843,-0.007843,-0.007843,-1.960784,-1.960784,-1.960784,3
0,-2.823529,0,-0.007843,-0.007843,-0.007843,-1.960784,-1.960784,-1.960784,3
0,-2.823529,0,-0.007843,-0.007843,-0.007843,-1.960784,-1.960784,-1.960784,3
0,-2.823529,0,-0.007843,-0.007843,-0.007843,-1.960784,-1.960784,-1.960784,3
0,-2.823529,0,-0.007843,-0.007843,-0.007843,-1.960784,-1.960784,-1.960784,3
0,-2.823529,0,-0.007843,-0.007843,-0.007843,-1.960784,-1.960784,-1.960784,3
0,-2.823529,0,-0.007843,-0.007843,-0.007843,-1.960784,-1.960784,-1.960784,3
0,-2.823529,0,-0.007843,-0.007843,-0.007843,-1.960784,-1.960784,-1.960784,3
0,-2.823529,0,-0.007843,-0.007843,-0.007843,-1.960784,-1.960784,-1.960784,3
0,-2.823529,0,-0.007843,-0.007843,-0.007843,-1.960784,-1.960784,-1.960784,3
0,-2.823529,0,-0.007843,-0.007843,-0.007843,-1.960784,-1.960784,-1.960784,3
0,-2.823529,0,-0.007843,-0.007843,-0.007843,-1.960784,-1.960784,-1.960784,3
0,-2.823529,0,-0.007843,-0.007843,-0.007843,-1.960784,-1.960784,-1.960784,3
0,-2.823529,0,-0.007843,-0.007843,-0.007843,-1.960784,-1.960784,-1.960784,3
0,-2.823529,0,-0.007843,-0.007843,-0.007843,-1.960784,-1.960784,-1.960784,3
0,-2.823529,0,-0.007843,-0.007843,-0.007843,-1.960784,-1.960784,-1.960784,3
0,-2.823529,0,-0.007843,-0.007843,-0.007843,-1.960784,-1.960784,-1.960784,3
0,-2.823529,0,-0.007843,-0.007843,-0.007843,-1.960784,-1.960784,-1.960784,3
0,-2.823529,0,-0.007843,-0.007843,-0.007843,-1.960784,-1.960784,-1.960784,3
0,-2.823529,0,-0.007843,-0.007843,-0.007843,-1.960784,-1.960784,-1.960784,3
0,-2.823529,0,-0.007843,-0.007843,-0.007843,-1.960784,-1.960784,-1.960784,3
0,-2.823529,0,-0.007843,-0.007843,-0.007843,-1.960784,-1.960784,-1.960784,3
0,-2.823529,0,-0.007843,-0.007843,-0.007843,-1.960784,-1.960784,-1.960784,3
0,-2.823529,0,-0.007843,-0.007843,-0.007843,-1.960784,-1.960784,-1.960784,3
0,-2.823529,0,-0.007843,-0.007843,-0.007843,-1.960784,-1.960784,-1.960784,3
0,-2.823529,0,-0.007843,-0.007843,-0.007843,-1.960784,-1.960784,-1.960784,3
0,-2.823529,0,-0.007843,-0.007843,-0.007843,-1.960784,-1.960784,-1.960784,3
0,-2.823529,0,-0.007843,-0.007843,-0.007843,-1.960784,-1.960784,-1.960784,3
0,-2.823529,0,-0.007843,-0.007843,-0.007843,-1.960784,-1.960784,-1.960784,3
0,-2.823529,0,-0.007843,-0.007843,-0.007843,-1.960784,-1.960784,-1.960784,3
0,-2.823529,0,-0.007843,-0.007843,-0.007843,-1.960784,-1.960784,-1.960784,3
0,-2.823529,0,-0.007843,-0.007843,-0.007843,-1.960784,-1.960784,-1.960784,3
0,-2.823529,0,-0.007843,-0.007843,-0.007843,-1.960784,-1.960784,-1.960784,3
0,-2.823529,0,-0.007843,-0.007843,-0.007843,-1.960784,-1.960784,-1.960784,3
0,-2.823529,0,-0.007843,-0.007843,-0.007843,-1.960784,-1.960784,-1.960784,3
0,-2.823529,0,-0.007843,-0.007843,-0.007843,-1.960784,-1.960784,-1.960784,3
0,-2.823529,0,-0.007843,-0.007843,-0.007843,-1.960784,-1.960784,-1.960784,3
0,-2.823529,0,-0.007843,-0.007843,-0.007843,-1.960784,-1.960784,-1.960784,3
0,-2.823529,0,-0.007843,-0.007843,-0.007843,-1.960784,-1.960784,-1.960784,3
0,-2.823529,0,-0.007843,-0.007843,-0.007843,-1.960784,-1.960784,-1.960784,3
0,-2.823529,0,-0.007843,-0.007843,-0.007843,-1.960784,-1.960784,-1.960784,3
0,-2.823529,0,-0.007843,-0.007843,-0.007843,-1.960784,-1.960784,-1.960784,3
0,-2.823529,0,-0.007843,-0.007843,-0.007843,-1.960784,-1.960784,-1.960784,3
0,-2.823529,0,-0.007843,-0.007843,-0.007843,-1.960784,-1.960784,-1.960784,3
0,-2.823529,0,-0.007843,-0.007843,-0.007843,-1.960784,-1.960784,-1.960784,3
0,-2.823529,0,-0.007843,-0.007843,-0.007843,-1.960784,-1.960784,-1.960784,3
0,-2.823529,0,-0.007843,-0.007843,-0.007843,-1.960784,-1.960784,-1.960784,3
0,-2.823529,0,-0.007843,-0.007843,-0.007843,-1.960784,-1.960784,-1.960784,3
0,-2.823529,0,-0.007843,-0.007843,-0.007843,-1.960784,-1.960784,-1.960784,3
0,-2.823529,0,-0.007843,-0.007843,-0.007843,-1.960784,-1.960784,-1.960784,3
0,-2.823529,0,-0.007843,-0.007843,-0.007843,-1.960784,-1.960784,-1.960784,3
0,-2.823529,0,-0.007843,-0.007843,-0.007843,-1.960784,-1.960784,-1.960784,3
0,-2.823529,0,-0.007843,-0.007843,-0.007843,-1.960784,-1.960784,-1.960784,3
0,-2.823529,0,-0.007843,-0.007843,-0.007843,-1.960784,-1.960784,-1.960784,3
0,-2.823529,0,-0.007843,-0.007843,-0.007843,-1.960784,-1.960784,-1.960784,3
0,-2.823529,0,-0.007843,-0.007843,-0.007843,-1.960784,-1.960784,-1.960784,3
0,-2.823529,0,-0.007843,-0.007843,-0.007843,-1.960784,-1.960784,-1.960784,3
0,-2.823529,0,-0.007843,-0.007843,-0.007843,-1.960784,-1.960784,-1.960784,3
0,-2.823529,0,-0.007843,-0.007843,-0.007843,-1.960784,-1.960784,-1.960784,3
0,-2.823529,0,-0.007843,-0.007843,-0.007843,-1.960784,-1.960784,-1.960784,3
0,-2.823529,0,-0.007843,-0.007843,-0.007843,-1.960784,-1.960784,-1.960784,3
0,-2.823529,0,-0.007843,-0.007843,-0.007843,-1.960784,-1.960784,-1.960784,3
0,-2.823529,0,-0.007843,-0.007843,-0.007843,-1.960784,-1.960784,-1.960784,3
0,-2.823529,0,-0.007843,-0.007843,-0.007843,-1.960784,-1.960784,-1.960784,3
0,-2.823529,0,-0.007843,-0.007843,-0.007843,-1.960784,-1.960784,-1.960784,3
0,-2.823529,0,-0.007843,-0.007843,-0.007843,-1.960784,-1.960784,-1.960784,3
0,-2.823529,0,-0.007843,-0.007843,-0.007843,-1.960784,-1.960784,-1.960784,3
0,-2.823529,0,-0.007843,-0.007843,-0.007843,-1.960784,-1.960784,-1.960784,3
0,-2.823529,0,-0.007843,-0.007843,-0.007843,-1.960784,-1.960784,-1.960784,3
0,-2.823529,0,-0.007843,-0.007843,-0.007843,-1.960784,-1.960784,-1.960784,3
0,-2.823529,0,-0.007843,-0.007843,-0.007843,-1.960784,-1.960784,-1.960784,3
0,-2.823529,0,-0.007843,-0.007843,-0.007843,-1.960784,-1.960784,-1.960784,3
0,-2.823529,0,-0.007843,-0.007843,-0.007843,-1.960784,-1.960784,-1.960784,3
0,-2.823529,0,-0.007843,-0.007843,-0.007843,-1.960784,-1.960784,-1.960784,3
0,-2.823529,0,-0.007843,-0.007843,-0.007843,-1.960784,-1.960784,-1.960784,3
0,-2.823529,0,-0.007843,-0.007843,-0.007843,-1.960784,-1.960784,-1.960784,3
0,-2.823529,0,-0.007843,-0.007843,-0.007843,-1.960784,-1.960784,-1.960784,3
0,-2.823529,0,-0.007843,-0.007843,-0.007843,-1.960784,-1.960784,-1.960784,3
0,-2.823529,0,-0.007843,-0.007843,-0.007843,-1.960784,-1.960784,-1.960784,3
0,-2.823529,0,-0.007843,-0.007843,-0.007843,-1.960784,-1.960784,-1.960784,3
0,-2.823529,0,-0.007843,-0.007843,-0.007843,-1.960784,-1.960784,-1.960784,3
0,-2.823529,0,-0.007843,-0.007843,-0.007843,-1.960784,-1.960784,-1.960784,3
0,-2.823529,0,-0.007843,-0.007843,-0.007843,-1.960784,-1.960784,-1.960784,3
0,-2.823529,0,-0.007843,-0.007843,-0.007843,-1.960784,-1.960784,-1.960784,3
0,-2.823529,0,-0.007843,-0.007843,-0.007843,-1.960784,-1.960784,-1.960784,3
0,-2.823529,0,-0.007843,-0.007843,-0.007843,-1.960784,-1.960784,-1.960784,3
0,-2.823529,0,-0.007843,-0.007843,-0.007843,-1.960784,-1.960784,-1.960784,3
0,-2.823529,0,-0.007843,-0.007843,-0.007843,-1.960784,-1.960784,-1.960784,3
0,-2.823529,0,-0.007843,-0.007843,-0.007843,-1.960784,-1.960784,-1.960784,3
0,-2.823529,0,-0.007843,-0.007843,-0.007843,-1.960784,-1.960784,-1.960784,3
0,-2.823529,0,-0.007843,-0.007843,-0.007843,-1.960784,-1.960784,-1.960784,3
0,-2.823529,0,-0.007843,-0.007843,0.007843,-1.960784,-1.960784,-1.960784,3
0,-2.823529,0,-0.007843,-0.007843,-0.007843,-1.960784,-1.960784,-1.960784,3
0,-2.823529,0,-0.007843,-0.007843,-0.007843,-1.960784,-1.960784,-1.960784,3
0,-2.823529,0,-0.007843,-0.007843,-0.007843,-1.960784,-1.960784,-1.960784,3
0,-2.823529,0,-0.007843,-0.007843,-0.007843,-1.960784,-1.960784,-1.960784,3
0,-2.823529,0,-0.007843,-0.007843,-0.007843,-1.960784,-1.960784,-1.960784,3
0,-2.823529,0,-0.007843,-0.007843,-0.007843,-1.960784,-1.960784,-1.960784,3
0,-2.823529,0,-0.007843,-0.007843,-0.007843,-1.960784,-1.960784,-1.960784,3
0,-2.823529,0,-0.007843,-0.007843,0.007843,-1.960784,-1.960784,-1.960784,3
0,-2.823529,0,-0.007843,-0.007843,-0.007843,-1.960784,-1.960784,-1.960784,3
0,-2.823529,0,-0.007843,-0.007843,-0.007843,-1.960784,-1.960784,-1.960784,3
0,-2.823529,0,-0.007843,-0.007843,-0.007843,-1.960784,-1.960784,-1.960784,3
0,-2.823529,0,-0.007843,-0.007843,0.007843,-1.960784,-1.960784,-1.960784,3
0,-2.823529,0,-0.007843,-0.007843,-0.007843,-1.960784,-1.960784,-1.960784,3
0,-2.823529,0,-0.007843,-0.007843,-0.007843,-1.960784,-1.960784,-1.960784,3
0,-2.823529,0,-0.007843,-0.007843,-0.007843,-1.960784,-1.960784,-1.960784,3
0,-2.823529,0,-0.007843,-0.007843,0.007843,-1.960784,-1.960784,-1.960784,3
0,-2.823529,0,-0.007843,-0.007843,-0.007843,-1.960784,-1.960784,-1.960784,3
0,-2.823529,0,-0.007843,-0.007843,-0.007843,-1.960784,-1.960784,-1.960784,3
0,-2.823529,0,-0.007843,-0.007843,-0.007843,-1.960784,-1.960784,-1.960784,3
0,-2.823529,0,-0.007843,-0.007843,-0.007843,-1.960784,-1.960784,-1.960784,3
0,-2.823529,0,-0.007843,-0.007843,-0.007843,-1.960784,-1.960784,-1.960784,3
0,-2.823529,0,-0.007843,-0.007843,-0.007843,-1.960784,-1.960784,-1.960784,3
0,-2.823529,0,-0.007843,-0.007843,-0.007843,-1.960784,-1.960784,-1.960784,3
0,-2.823529,0,-0.007843,-0.007843,-0.007843,-1.960784,-1.960784,-1.960784,3
0,-2.823529,0,-0.007843,-0.007843,-0.007843,-1.960784,-1.960784,-1.960784,3
0,-2.823529,0,-0.007843,-0.007843,-0.007843,-1.960784,-1.960784,-1.960784,3
0,-2.823529,0,-0.007843,-0.007843,-0.007843,-1.960784,-1.960784,-1.960784,3
0,-2.823529,0,-0.007843,-0.007843,-0.007843,-1.960784,-1.960784,-1.960784,3
0,-2.823529,0,-0.007843,-0.007843,-0.007843,-1.960784,-1.960784,-1.960784,3
0,-2.823529,0,-0.007843,-0.007843,-0.007843,-1.960784,-1.960784,-1.960784,3
0,-2.823529,0,-0.007843,-0.007843,-0.007843,-1.960784,-1.960784,-1.960784,3
0,-2.823529,0,-0.007843,-0.007843,-0.007843,-1.960784,-1.960784,-1.960784,3
0,-2.823529,0,-0.007843,-0.007843,-0.007843,-1.960784,-1.960784,-1.960784,3
0,-2.823529,0,-0.007843,-0.007843,-0.007843,-1.960784,-1.960784,-1.960784,3
0,-2.823529,0,-0.007843,-0.007843,-0.007843,-1.960784,-1.960784,-1.960784,3
0,-2.823529,0,-0.007843,-0.007843,0.007843,-1.960784,-1.960784,-1.960784,3
0,-2.823529,0,-0.007843,-0.007843,-0.007843,-1.960784,-1.960784,-1.960784,3
0,-2.823529,0,-0.007843,-0.007843,-0.007843,-1.960784,-1.960784,-1.960784,3
0,-2.823529,0,-0.007843,-0.007843,-0.007843,-1.960784,-1.960784,-1.960784,3
0,-2.823529,0,-0.007843,-0.007843,-0.007843,-1.960784,-1.960784,-1.960784,3
0,-2.823529,0,-0.007843,-0.007843,-0.007843,-1.960784,-1.960784,-1.960784,3
0,-2.823529,0,-0.007843,-0.007843,-0.007843,-1.960784,-1.960784,-1.960784,3
0,-2.823529,0,-0.007843,-0.007843,-0.007843,-1.960784,-1.960784,-1.960784,3
0,-2.823529,0,-0.007843,-0.007843,-0.007843,-1.960784,-1.960784,-1.960784,3
0,-2.823529,0,-0.007843,-0.007843,-0.007843,-1.960784,-1.960784,-1.960784,3
0,-2.823529,0,-0.007843,-0.007843,-0.007843,-1.960784,-1.960784,-1.960784,3
0,-2.823529,0,-0.007843,-0.007843,0.007843,-1.960784,-1.960784,-1.960784,3
0,-2.823529,0,-0.007843,-0.007843,-0.007843,-1.960784,-1.960784,-1.960784,3
0,-2.823529,0,-0.007843,-0.007843,-0.023529,-1.960784,-1.960784,-1.960784,3
0,-2.823529,0,-0.007843,-0.007843,-0.007843,-1.960784,-1.960784,-1.960784,3
0,-2.823529,0,-0.007843,-0.007843,-0.007843,-1.960784,-1.960784,-1.960784,3
0,-2.823529,0,-0.007843,-0.007843,-0.007843,-1.960784,-1.960784,-1.960784,3
0,-2.823529,0,-0.007843,-0.007843,-0.007843,-1.960784,-1.960784,-1.960784,3
0,-2.823529,0,-0.007843,-0.007843,-0.007843,-1.960784,-1.960784,-1.960784,3
0,-2.823529,0,-0.007843,-0.007843,-0.007843,-1.960784,-1.960784,-1.960784,3
0,-2.823529,0,-0.007843,-0.007843,-0.007843,-1.960784,-1.960784,-1.960784,3
0,-2.823529,0,-0.007843,-0.007843,-0.007843,-1.960784,-1.960784,-1.960784,3
0,-2.823529,0,-0.007843,-0.007843,-0.007843,-1.960784,-1.960784,-1.960784,3
0,-2.823529,0,-0.007843,-0.007843,-0.007843,-1.960784,-1.960784,-1.960784,3
0,-2.823529,0,-0.007843,-0.007843,-0.007843,-1.960784,-1.960784,-1.960784,3
0,-2.823529,0,-0.007843,-0.007843,-0.007843,-1.960784,-1.960784,-1.960784,3
0,-2.823529,0,-0.007843,-0.007843,0.007843,-1.960784,-1.960784,-1.960784,3
0,-2.823529,0,-0.007843,-0.007843,-0.007843,-1.960784,-1.960784,-1.960784,3
0,-2.823529,0,-0.007843,-0.007843,-0.007843,-1.960784,-1.960784,-1.960784,3
0,-2.823529,0,-0.007843,-0.007843,-0.007843,-1.960784,-1.960784,-1.960784,3
0,-2.823529,0,-0.007843,-0.007843,-0.007843,-1.960784,-1.960784,-1.960784,3
0,-2.823529,0,-0.007843,-0.007843,-0.007843,-1.960784,-1.960784,-1.960784,3
0,-2.823529,0,-0.007843,-0.007843,-0.007843,-1.960784,-1.960784,-1.960784,3
0,-2.823529,0,-0.007843,0.007843,-0.007843,-1.960784,-1.960784,-1.960784,3
0,-2.823529,0,-0.007843,-0.007843,-0.007843,-1.960784,-1.960784,-1.960784,3
0,-2.823529,0,-0.007843,-0.007843,-0.007843,-1.960784,-1.960784,-1.960784,3
0,-2.823529,0,-0.007843,-0.007843,-0.007843,-1.960784,-1.960784,-1.960784,3
0,-2.823529,0,-0.007843,-0.007843,-0.007843,-1.960784,-1.960784,-1.960784,3
0,-2.823529,0,-0.007843,-0.007843,-0.007843,-1.960784,-1.960784,-1.960784,3
0,-2.823529,0,-0.007843,-0.007843,-0.007843,-1.960784,-1.960784,-1.960784,3
0,-2.823529,0,-0.007843,-0.007843,-0.007843,-1.960784,-1.960784,-1.960784,3
0,-2.823529,0,-0.007843,-0.007843,-0.007843,-1.960784,-1.960784,-1.960784,3
0,-2.823529,0,-0.007843,-0.007843,-0.007843,-1.960784,-1.960784,-1.960784,3
0,-2.823529,0,-0.007843,-0.007843,-0.007843,-1.960784,-1.960784,-1.960784,3
0,-2.823529,0,-0.007843,-0.007843,-0.007843,-1.960784,-1.960784,-1.960784,3
0,-2.823529,0,-0.007843,-0.007843,-0.007843,-1.960784,-1.960784,-1.960784,3
0,-2.823529,0,-0.007843,-0.007843,-0.007843,-1.960784,-1.960784,-1.960784,3
0,-2.823529,0,-0.007843,-0.007843,-0.007843,-1.960784,-1.960784,-1.960784,3
0,-2.823529,0,-0.007843,-0.007843,-0.007843,-1.960784,-1.960784,-1.960784,3
0,-2.823529,0,-0.007843,-0.007843,-0.007843,-1.960784,-1.960784,-1.960784,3
0,-2.823529,0,-0.007843,-0.007843,-0.007843,-1.960784,-1.960784,-1.960784,3
0,-2.823529,0,-0.007843,-0.007843,-0.007843,-1.960784,-1.960784,-1.960784,3
0,-2.823529,0,-0.007843,0.007843,-0.007843,-1.960784,-1.960784,-1.960784,3
0,-2.823529,0,-0.007843,-0.007843,-0.007843,-1.960784,-1.960784,-1.960784,3
0,-2.823529,0,-0.007843,-0.007843,-0.007843,-1.960784,-1.960784,-1.960784,3
0,-2.823529,0,-0.007843,-0.007843,-0.007843,-1.960784,-1.960784,-1.960784,3
0,-2.823529,0,-0.007843,-0.007843,-0.007843,-1.960784,-1.960784,-1.960784,3
0,-2.823529,0,-0.007843,-0.007843,-0.007843,-1.960784,-1.960784,-1.960784,3
0,-2.823529,0,-0.007843,-0.007843,-0.007843,-1.960784,-1.960784,-1.960784,3
0,-2.823529,0,-0.007843,-0.007843,-0.007843,-1.960784,-1.960784,-1.960784,3
0,-2.823529,0,-0.007843,-0.007843,-0.007843,-1.960784,-1.960784,-1.960784,3
0,-2.823529,0,-0.007843,-0.007843,-0.007843,-1.960784,-1.960784,-1.960784,3
0,-2.823529,0,-0.007843,-0.007843,-0.007843,-1.960784,-1.960784,-1.960784,3
0,-2.823529,0,-0.007843,-0.007843,-0.007843,-1.960784,-1.960784,-1.960784,3
0,-2.823529,0,-0.007843,-0.007843,-0.007843,-1.960784,-1.960784,-1.960784,3
0,-2.823529,0,-0.007843,-0.007843,-0.007843,-1.960784,-1.960784,-1.960784,3
0,-2.823529,0,-0.007843,-0.007843,-0.007843,-1.960784,-1.960784,-1.960784,3
0,-2.823529,0,-0.007843,-0.007843,-0.007843,-1.960784,-1.960784,-1.960784,3
0,-2.823529,0,-0.007843,-0.007843,0.007843,-1.960784,-1.960784,-1.960784,3
0,-2.823529,0,-0.007843,-0.007843,-0.007843,-1.960784,-1.960784,-1.960784,3
0,-2.823529,0,-0.007843,-0.007843,-0.007843,-1.960784,-1.960784,-1.960784,3
0,-2.823529,0,-0.007843,-0.007843,-0.007843,-1.960784,-1.960784,-1.960784,3
0,-2.823529,0,-0.007843,-0.007843,-0.007843,-1.960784,-1.960784,-1.960784,3
0,-2.823529,0,-0.007843,-0.007843,-0.007843,-1.960784,-1.960784,-1.960784,3
0,-2.823529,0,-0.007843,-0.007843,-0.007843,-1.960784,-1.960784,-1.960784,3
0,-2.823529,0,-0.007843,-0.007843,-0.007843,-1.960784,-1.960784,-1.960784,3
0,-2.823529,0,-0.007843,-0.007843,-0.007843,-1.960784,-1.960784,-1.960784,3
0,-2.823529,0,-0.007843,-0.007843,-0.007843,-1.960784,-1.960784,-1.960784,3
0,-2.823529,0,-0.007843,-0.007843,-0.007843,-1.960784,-1.960784,-1.960784,3
0,-2.823529,0,-0.007843,-0.007843,-0.007843,-1.960784,-1.960784,-1.960784,3
0,-2.823529,0,-0.007843,-0.007843,-0.007843,-1.960784,-1.960784,-1.960784,3
0,-2.823529,0,-0.007843,-0.007843,-0.007843,-1.960784,-1.960784,-1.960784,3
0,-2.823529,0,-0.007843,-0.007843,-0.007843,-1.960784,-1.960784,-1.960784,3
0,-2.823529,0,-0.007843,-0.007843,-0.007843,-1.960784,-1.960784,-1.960784,3
0,-2.823529,0,-0.007843,-0.007843,-0.007843,-1.960784,-1.960784,-1.960784,3
0,-2.823529,0,-0.007843,-0.007843,-0.007843,-1.960784,-1.960784,-1.960784,3
0,-2.823529,0,-0.007843,-0.007843,-0.007843,-1.960784,-1.960784,-1.960784,3
0,-2.823529,0,-0.007843,-0.007843,-0.007843,-1.960784,-1.960784,-1.960784,3
0,-2.823529,0,-0.007843,-0.007843,-0.007843,-1.960784,-1.960784,-1.960784,3
0,-2.823529,0,-0.007843,-0.007843,-0.007843,-1.960784,-1.960784,-1.960784,3
0,-2.823529,0,-0.007843,-0.007843,-0.007843,-1.960784,-1.960784,-1.960784,3
0,-2.823529,0,-0.007843,-0.007843,0.007843,-1.960784,-1.960784,-1.960784,3
0,-2.823529,0,-0.007843,-0.007843,-0.007843,-1.960784,-1.960784,-1.960784,3
0,-2.823529,0,-0.007843,-0.007843,-0.007843,-1.960784,-1.960784,-1.960784,3
0,-2.823529,0,-0.007843,-0.007843,-0.007843,-1.960784,-1.960784,-1.960784,3
0,-2.823529,0,-0.007843,-0.007843,-0.007843,-1.960784,-1.960784,-1.960784,3
0,-2.823529,0,-0.007843,-0.007843,-0.007843,-1.960784,-1.960784,-1.960784,3
0,-2.823529,0,-0.007843,-0.007843,-0.007843,-1.960784,-1.960784,-1.960784,3
0,-2.823529,0,-0.007843,-0.007843,-0.007843,-1.960784,-1.960784,-1.960784,3
0,-2.823529,0,-0.007843,-0.007843,-0.007843,-1.960784,-1.960784,-1.960784,3
0,-2.823529,0,-0.007843,-0.007843,-0.007843,-1.960784,-1.960784,-1.960784,3
0,-2.823529,0,-0.007843,-0.007843,-0.007843,-1.960784,-1.960784,-1.960784,3
0,-2.823529,0,-0.007843,-0.007843,-0.007843,-1.960784,-1.960784,-1.960784,3
0,-2.823529,0,-0.007843,-0.007843,-0.007843,-1.960784,-1.960784,-1.960784,3
0,-2.823529,0,-0.007843,-0.007843,-0.007843,-1.960784,-1.960784,-1.960784,3
0,-2.823529,0,-0.007843,-0.007843,-0.007843,-1.960784,-1.960784,-1.960784,3
0,-2.823529,0,-0.007843,-0.007843,-0.007843,-1.960784,-1.960784,-1.960784,3
0,-2.823529,0,-0.007843,-0.007843,-0.007843,-1.960784,-1.960784,-1.960784,3
0,-2.823529,0,-0.007843,-0.007843,-0.007843,-1.960784,-1.960784,-1.960784,3
0,-2.823529,0,-0.007843,-0.007843,-0.007843,-1.960784,-1.960784,-1.960784,3
0,-2.823529,0,-0.007843,-0.007843,-0.007843,-1.960784,-1.960784,-1.960784,3
0,-2.823529,0,-0.007843,-0.007843,-0.007843,-1.960784,-1.960784,-1.960784,3
0,-2.823529,0,-0.007843,-0.007843,-0.007843,-1.960784,-1.960784,-1.960784,3
0,-2.823529,0,-0.007843,-0.007843,-0.007843,-1.960784,-1.960784,-1.960784,3
0,-2.823529,0,-0.007843,-0.007843,-0.023529,-1.960784,-1.960784,-1.960784,3
0,-2.823529,0,-0.007843,-0.007843,0.007843,-1.960784,-1.960784,-1.960784,3
0,-2.823529,0,-0.007843,-0.007843,-0.007843,-1.960784,-1.960784,-1.960784,3
0,-2.823529,0,-0.007843,-0.007843,-0.007843,-1.960784,-1.960784,-1.960784,3
0,-2.823529,0,-0.007843,-0.007843,0.007843,-1.960784,-1.960784,-1.960784,3
0,-2.823529,0,-0.007843,-0.007843,-0.007843,-1.960784,-1.960784,-1.960784,3
0,-2.823529,0,-0.007843,-0.007843,-0.007843,-1.960784,-1.960784,-1.960784,3
0,-2.823529,0,-0.007843,-0.007843,-0.007843,-1.960784,-1.960784,-1.960784,3
0,-2.823529,0,-0.007843,-0.007843,-0.007843,-1.960784,-1.960784,-1.960784,3
0,-2.823529,0,-0.007843,-0.007843,-0.007843,-1.960784,-1.960784,-1.960784,3
0,-2.823529,0,-0.007843,-0.007843,-0.007843,-1.960784,-1.960784,-1.960784,3
0,-2.823529,0,-0.007843,-0.007843,-0.007843,-1.960784,-1.960784,-1.960784,3
0,-2.823529,0,-0.007843,-0.007843,-0.007843,-1.960784,-1.960784,-1.960784,3
0,-2.823529,0,-0.007843,-0.007843,-0.007843,-1.960784,-1.960784,-1.960784,3
0,-2.823529,0,-0.007843,-0.007843,0.007843,-1.960784,-1.960784,-1.960784,3
0,-2.823529,0,-0.007843,0.007843,-0.007843,-1.960784,-1.960784,-1.960784,3
0,-2.823529,0,-0.007843,-0.007843,-0.007843,-1.960784,-1.960784,-1.960784,3
0,-2.823529,0,-0.007843,-0.007843,-0.007843,-1.960784,-1.960784,-1.960784,3
0,-2.823529,0,-0.007843,-0.007843,-0.007843,-1.960784,-1.960784,-1.960784,3
0,-2.823529,0,-0.007843,-0.007843,-0.007843,-1.960784,-1.960784,-1.960784,3
0,-2.823529,0,-0.007843,-0.007843,-0.007843,-1.960784,-1.960784,-1.960784,3
0,-2.823529,0,-0.007843,-0.007843,-0.007843,-1.960784,-1.960784,-1.960784,3
0,-2.823529,0,-0.007843,-0.007843,-0.007843,-1.960784,-1.960784,-1.960784,3
0,-2.823529,0,-0.007843,-0.007843,-0.007843,-1.960784,-1.960784,-1.960784,3
0,-2.823529,0,-0.007843,-0.007843,-0.007843,-1.960784,-1.960784,-1.960784,3
0,-2.823529,0,-0.007843,-0.007843,-0.007843,-1.960784,-1.960784,-1.960784,3
0,-2.823529,0,-0.007843,-0.007843,-0.007843,-1.960784,-1.960784,-1.960784,3
0,-2.823529,0,-0.007843,-0.007843,-0.007843,-1.960784,-1.960784,-1.960784,3
0,-2.823529,0,-0.007843,-0.007843,-0.007843,-1.960784,-1.960784,-1.960784,3
0,-2.823529,0,-0.007843,-0.007843,-0.007843,-1.960784,-1.960784,-1.960784,3
0,-2.823529,0,-0.007843,-0.007843,-0.007843,-1.960784,-1.960784,-1.960784,3
0,-2.823529,0,-0.007843,-0.007843,-0.007843,-1.960784,-1.960784,-1.960784,3
0,-2.823529,0,-0.007843,-0.007843,-0.007843,-1.960784,-1.960784,-1.960784,3
0,-2.823529,0,-0.007843,-0.007843,-0.007843,-1.960784,-1.960784,-1.960784,3
0,-2.823529,0,-0.007843,-0.007843,-0.007843,-1.960784,-1.960784,-1.960784,3
0,-2.823529,0,-0.007843,-0.007843,-0.007843,-1.960784,-1.960784,-1.960784,3
0,-2.823529,0,-0.007843,-0.007843,-0.007843,-1.960784,-1.960784,-1.960784,3
0,-2.823529,0,-0.007843,-0.007843,-0.007843,-1.960784,-1.960784,-1.960784,3
0,-2.823529,0,-0.007843,-0.007843,-0.007843,-1.960784,-1.960784,-1.960784,3
0,-2.823529,0,-0.007843,-0.007843,-0.007843,-1.960784,-1.960784,-1.960784,3
0,-2.823529,0,-0.007843,-0.007843,-0.007843,-1.960784,-1.960784,-1.960784,3
0,-2.823529,0,-0.007843,-0.007843,0.007843,-1.960784,-1.960784,-1.960784,3
0,-2.823529,0,-0.007843,-0.007843,-0.007843,-1.960784,-1.960784,-1.960784,3
0,-2.823529,0,-0.007843,-0.007843,-0.007843,-1.960784,-1.960784,-1.960784,3
0,-2.823529,0,-0.007843,-0.007843,-0.007843,-1.960784,-1.960784,-1.960784,3
0,-2.823529,0,-0.007843,-0.007843,-0.007843,-1.960784,-1.960784,-1.960784,3
0,-2.823529,0,-0.007843,-0.007843,-0.007843,-1.960784,-1.960784,-1.960784,3
0,-2.823529,0,-0.007843,-0.007843,0.007843,-1.960784,-1.960784,-1.960784,3
0,-2.823529,0,-0.007843,-0.007843,-0.007843,-1.960784,-1.960784,-1.960784,3
0,-2.823529,0,-0.007843,-0.007843,-0.007843,-1.960784,-1.960784,-1.960784,3
0,-2.823529,0,-0.007843,-0.007843,-0.007843,-1.960784,-1.960784,-1.960784,3
0,-2.823529,0,-0.007843,-0.007843,-0.007843,-1.960784,-1.960784,-1.960784,3
0,-2.823529,0,-0.007843,-0.007843,-0.007843,-1.960784,-1.960784,-1.960784,3
0,-2.823529,0,-0.007843,-0.007843,-0.007843,-1.960784,-1.960784,-1.960784,3
0,-2.823529,0,-0.007843,-0.007843,-0.007843,-1.960784,-1.960784,-1.960784,3
0,-2.823529,0,-0.007843,-0.007843,-0.007843,-1.960784,-1.960784,-1.960784,3
0,-2.823529,0,-0.007843,-0.007843,-0.007843,-1.960784,-1.960784,-1.960784,3
0,-2.823529,0,-0.007843,-0.007843,-0.007843,-1.960784,-1.960784,-1.960784,3
0,-2.823529,0,-0.007843,-0.007843,-0.007843,-1.960784,-1.960784,-1.960784,3
0,-2.823529,0,-0.007843,-0.007843,-0.007843,-1.960784,-1.960784,-1.960784,3
0,-2.823529,0,-0.007843,-0.007843,-0.007843,-1.960784,-1.960784,-1.960784,3
0,-2.823529,0,-0.007843,-0.007843,-0.007843,-1.960784,-1.960784,-1.960784,3
0,-2.823529,0,-0.007843,-0.007843,-0.007843,-1.960784,-1.960784,-1.960784,3
0,-2.823529,0,-0.007843,-0.007843,0.007843,-1.960784,-1.960784,-1.960784,3
0,-2.823529,0,-0.007843,-0.007843,-0.007843,-1.960784,-1.960784,-1.960784,3
0,-2.823529,0,-0.007843,-0.007843,-0.007843,-1.960784,-1.960784,-1.960784,3
0,-2.823529,0,-0.007843,-0.007843,-0.007843,-1.960784,-1.960784,-1.960784,3
0,-2.823529,0,-0.007843,-0.007843,-0.007843,-1.960784,-1.960784,-1.960784,3
0,-2.823529,0,-0.007843,-0.007843,-0.007843,-1.960784,-1.960784,-1.960784,3
0,-2.823529,0,-0.007843,-0.007843,-0.007843,-1.960784,-1.960784,-1.960784,3
0,-2.823529,0,-0.007843,-0.007843,-0.007843,-1.960784,-1.960784,-1.960784,3
0,-2.823529,0,-0.007843,-0.007843,-0.007843,-1.960784,-1.960784,-1.960784,3
0,-2.823529,0,-0.007843,-0.007843,0.007843,-1.960784,-1.960784,-1.960784,3
0,-2.823529,0,-0.007843,-0.007843,0.007843,-1.960784,-1.960784,-1.960784,3
0,-2.823529,0,-0.007843,-0.007843,-0.007843,-1.960784,-1.960784,-1.960784,3
0,-2.823529,0,-0.007843,-0.007843,-0.007843,-1.960784,-1.960784,-1.960784,3
0,-2.823529,0,-0.007843,-0.007843,-0.007843,-1.960784,-1.960784,-1.960784,3
0,-2.823529,0,-0.007843,-0.007843,-0.007843,-1.960784,-1.960784,-1.960784,3
0,-2.823529,0,-0.007843,-0.007843,-0.007843,-1.960784,-1.960784,-1.960784,3
0,-2.823529,0,-0.007843,-0.007843,-0.007843,-1.960784,-1.960784,-1.960784,3
0,-2.823529,0,-0.007843,-0.007843,-0.007843,-1.960784,-1.960784,-1.960784,3
0,-2.823529,0,-0.007843,-0.007843,-0.007843,-1.960784,-1.960784,-1.960784,3
0,-2.823529,0,-0.007843,-0.007843,-0.007843,-1.960784,-1.960784,-1.960784,3
0,-2.823529,0,-0.007843,-0.007843,-0.007843,-1.960784,-1.960784,-1.960784,3
0,-2.823529,0,-0.007843,-0.007843,-0.007843,-1.960784,-1.960784,-1.960784,3
0,-2.823529,0,-0.007843,-0.007843,0.007843,-1.960784,-1.960784,-1.960784,3
0,-2.823529,0,-0.007843,-0.007843,-0.007843,-1.960784,-1.960784,-1.960784,3
0,-2.823529,0,-0.007843,-0.007843,-0.007843,-1.960784,-1.960784,-1.960784,3
0,-2.823529,0,-0.007843,-0.007843,-0.007843,-1.960784,-1.960784,-1.960784,3
0,-2.823529,0,-0.007843,-0.007843,-0.007843,-1.960784,-1.960784,-1.960784,3
0,-2.823529,0,-0.007843,-0.007843,-0.007843,-1.960784,-1.960784,-1.960784,3
0,-2.823529,0,-0.007843,-0.007843,-0.007843,-1.960784,-1.960784,-1.960784,3
0,-2.823529,0,-0.007843,-0.007843,-0.007843,-1.960784,-1.960784,-1.960784,3
0,-2.823529,0,-0.007843,-0.007843,-0.007843,-1.960784,-1.960784,-1.960784,3
0,-2.823529,0,-0.007843,-0.007843,-0.007843,-1.960784,-1.960784,-1.960784,3
0,-2.823529,0,-0.007843,-0.007843,-0.007843,-1.960784,-1.960784,-1.960784,3
0,-2.823529,0,-0.007843,-0.007843,-0.007843,-1.960784,-1.960784,-1.960784,3
0,-2.823529,0,-0.007843,-0.007843,-0.007843,-1.960784,-1.960784,-1.960784,3
0,-2.823529,0,-0.007843,-0.007843,-0.007843,-1.960784,-1.960784,-1.960784,3
0,-2.823529,0,-0.007843,-0.007843,-0.007843,-1.960784,-1.960784,-1.960784,3
0,-2.823529,0,-0.007843,-0.007843,-0.007843,-1.960784,-1.960784,-1.960784,3
0,-2.823529,0,-0.007843,-0.007843,-0.007843,-1.960784,-1.960784,-1.960784,3
0,-2.823529,0,-0.007843,-0.007843,-0.007843,-1.960784,-1.960784,-1.960784,3
0,-2.823529,0,-0.007843,-0.007843,-0.007843,-1.960784,-1.960784,-1.960784,3
0,-2.823529,0,-0.007843,-0.007843,-0.007843,-1.960784,-1.960784,-1.960784,3
0,-2.823529,0,-0.007843,-0.007843,-0.007843,-1.960784,-1.960784,-1.960784,3
0,-2.823529,0,-0.007843,-0.007843,-0.007843,-1.960784,-1.960784,-1.960784,3
0,-2.823529,0,-0.007843,-0.007843,-0.007843,-1.960784,-1.960784,-1.960784,3
0,-2.823529,0,-0.007843,-0.007843,-0.007843,-1.960784,-1.960784,-1.960784,3
0,-2.823529,0,-0.007843,-0.007843,-0.007843,-1.960784,-1.960784,-1.960784,3
0,-2.823529,0,-0.007843,-0.007843,-0.007843,-1.960784,-1.960784,-1.960784,3
0,-2.823529,0,-0.007843,-0.007843,-0.007843,-1.960784,-1.960784,-1.960784,3
0,-2.823529,0,-0.007843,-0.007843,-0.007843,-1.960784,-1.960784,-1.960784,3
0,-2.823529,0,-0.007843,-0.007843,-0.007843,-1.960784,-1.960784,-1.960784,3
0,-2.823529,0,-0.007843,-0.007843,-0.007843,-1.960784,-1.960784,-1.960784,3
0,-2.823529,0,-0.007843,-0.007843,-0.007843,-1.960784,-1.960784,-1.960784,3
0,-2.823529,0,-0.007843,-0.007843,-0.007843,-1.960784,-1.960784,-1.960784,3
0,-2.823529,0,-0.007843,-0.007843,-0.007843,-1.960784,-1.960784,-1.960784,3
0,-2.823529,0,-0.007843,-0.007843,-0.007843,-1.960784,-1.960784,-1.960784,3
0,-2.823529,0,-0.007843,-0.007843,-0.007843,-1.960784,-1.960784,-1.960784,3
0,-2.823529,0,-0.007843,-0.007843,-0.007843,-1.960784,-1.960784,-1.960784,3
0,-2.823529,0,-0.007843,-0.007843,-0.007843,-1.960784,-1.960784,-1.960784,3
0,-2.823529,0,-0.007843,-0.007843,-0.007843,-1.960784,-1.960784,-1.960784,3
0,-2.823529,0,-0.007843,-0.007843,-0.007843,-1.960784,-1.960784,-1.960784,3
0,-2.823529,0,-0.007843,-0.007843,-0.007843,-1.960784,-1.960784,-1.960784,3
0,-2.823529,0,-0.007843,-0.007843,-0.007843,-1.960784,-1.960784,-1.960784,3
0,-2.823529,0,-0.007843,-0.007843,-0.007843,-1.960784,-1.960784,-1.960784,3
0,-2.823529,0,-0.007843,-0.007843,-0.007843,-1.960784,-1.960784,-1.960784,3
0,-2.823529,0,-0.007843,-0.007843,-0.007843,-1.960784,-1.960784,-1.960784,3
0,-2.823529,0,-0.007843,-0.007843,-0.007843,-1.960784,-1.960784,-1.960784,3
0,-2.823529,0,-0.007843,-0.007843,-0.007843,-1.960784,-1.960784,-1.960784,3
0,-2.823529,0,-0.007843,-0.007843,-0.007843,-1.960784,-1.960784,-1.960784,3
0,-2.823529,0,-0.007843,-0.007843,-0.007843,-1.960784,-1.960784,-1.960784,3
0,-2.823529,0,-0.007843,-0.007843,-0.007843,-1.960784,-1.960784,-1.960784,3
0,-2.823529,0,-0.007843,-0.007843,-0.007843,-1.960784,-1.960784,-1.960784,3
0,-2.823529,0,-0.007843,-0.007843,-0.007843,-1.960784,-1.960784,-1.960784,3
0,-2.823529,0,-0.007843,-0.007843,-0.007843,-1.960784,-1.960784,-1.960784,3
0,-2.823529,0,-0.007843,-0.007843,-0.007843,-1.960784,-1.960784,-1.960784,3
0,-2.823529,0,-0.007843,-0.007843,-0.007843,-1.960784,-1.960784,-1.960784,3
0,-2.823529,0,-0.007843,-0.007843,-0.007843,-1.960784,-1.960784,-1.960784,3
0,-2.823529,0,-0.007843,-0.007843,-0.007843,-1.960784,-1.960784,-1.960784,3
0,-2.823529,0,-0.007843,-0.007843,-0.007843,-1.960784,-1.960784,-1.960784,3
0,-2.823529,0,-0.007843,-0.007843,-0.007843,-1.960784,-1.960784,-1.960784,3
0,-2.823529,0,-0.007843,-0.007843,-0.007843,-1.960784,-1.960784,-1.960784,3
0,-2.823529,0,-0.007843,-0.007843,0.007843,-1.960784,-1.960784,-1.960784,3
0,-2.823529,0,-0.007843,-0.007843,-0.007843,-1.960784,-1.960784,-1.960784,3
0,-2.823529,0,-0.007843,-0.007843,-0.007843,-1.960784,-1.960784,-1.960784,3
0,-2.823529,0,-0.007843,-0.007843,-0.007843,-1.960784,-1.960784,-1.960784,3
0,-2.823529,0,-0.007843,-0.007843,-0.007843,-1.960784,-1.960784,-1.960784,3
0,-2.823529,0,-0.007843,-0.007843,-0.007843,-1.960784,-1.960784,-1.960784,3
0,-2.823529,0,-0.007843,-0.007843,-0.007843,-1.960784,-1.960784,-1.960784,3
0,-2.823529,0,-0.007843,-0.007843,-0.007843,-1.960784,-1.960784,-1.960784,3
0,-2.823529,0,-0.007843,-0.007843,-0.007843,-1.960784,-1.960784,-1.960784,3
0,-2.823529,0,-0.007843,-0.007843,-0.007843,-1.960784,-1.960784,-1.960784,3
0,-2.823529,0,-0.007843,-0.007843,-0.007843,-1.960784,-1.960784,-1.960784,3
0,-2.823529,0,-0.007843,-0.007843,-0.007843,-1.960784,-1.960784,-1.960784,3
0,-2.823529,0,-0.007843,-0.007843,-0.007843,-1.960784,-1.960784,-1.960784,3
0,-2.823529,0,-0.007843,-0.007843,-0.007843,-1.960784,-1.960784,-1.960784,3
0,-2.823529,0,-0.007843,-0.007843,-0.007843,-1.960784,-1.960784,-1.960784,3
0,-2.823529,0,-0.007843,-0.007843,-0.007843,-1.960784,-1.960784,-1.960784,3
0,-2.823529,0,-0.007843,-0.007843,-0.007843,-1.960784,-1.960784,-1.960784,3
0,-2.823529,0,-0.007843,-0.007843,-0.007843,-1.960784,-1.960784,-1.960784,3
0,-2.823529,0,-0.007843,-0.007843,-0.007843,-1.960784,-1.960784,-1.960784,3
0,-2.823529,0,-0.007843,-0.007843,-0.007843,-1.960784,-1.960784,-1.960784,3
0,-2.823529,0,-0.007843,-0.007843,-0.007843,-1.960784,-1.960784,-1.960784,3
0,-2.823529,0,-0.007843,-0.007843,-0.007843,-1.960784,-1.960784,-1.960784,3
0,-2.823529,0,-0.007843,-0.007843,-0.007843,-1.960784,-1.960784,-1.960784,3
0,-2.823529,0,-0.007843,-0.007843,-0.007843,-1.960784,-1.960784,-1.960784,3
0,-2.823529,0,-0.007843,-0.007843,-0.007843,-1.960784,-1.960784,-1.960784,3
0,-2.823529,0,-0.007843,-0.007843,-0.007843,-1.960784,-1.960784,-1.960784,3
0,-2.823529,0,-0.007843,-0.007843,-0.007843,-1.960784,-1.960784,-1.960784,3
0,-2.823529,0,-0.007843,-0.007843,-0.007843,-1.960784,-1.960784,-1.960784,3
0,-2.823529,0,-0.007843,-0.007843,-0.007843,-1.960784,-1.960784,-1.960784,3
0,-2.823529,0,-0.007843,-0.007843,-0.007843,-1.960784,-1.960784,-1.960784,3
0,-2.823529,0,-0.007843,-0.007843,-0.007843,-1.960784,-1.960784,-1.960784,3
0,-2.823529,0,-0.007843,-0.007843,-0.007843,-1.960784,-1.960784,-1.960784,3
0,-2.823529,0,-0.007843,-0.007843,-0.007843,-1.960784,-1.960784,-1.960784,3
0,-2.823529,0,-0.007843,-0.007843,-0.007843,-1.960784,-1.960784,-1.960784,3
0,-2.823529,0,-0.007843,-0.007843,-0.007843,-1.960784,-1.960784,-1.960784,3
0,-2.823529,0,-0.007843,-0.007843,-0.007843,-1.960784,-1.960784,-1.960784,3
0,-2.823529,0,-0.007843,-0.007843,0.007843,-1.960784,-1.960784,-1.960784,3
0,-2.823529,-2.823529,-0.007843,-0.007843,-0.007843,-1.960784,-1.960784,-1.960784,3
0,-2.823529,-2.823529,-0.007843,-0.007843,-0.007843,-1.960784,-1.960784,-1.960784,3
0,-2.823529,-2.823529,-0.007843,-0.007843,-0.007843,-1.960784,-1.960784,-1.960784,3
0,-2.823529,-2.823529,-0.007843,-0.007843,-0.007843,-1.960784,-1.960784,-1.960784,3
0,-2.823529,-2.823529,-0.007843,-0.007843,-0.007843,-1.960784,-1.960784,-1.960784,3
0,-2.823529,-2.823529,-0.007843,-0.007843,0.007843,-1.960784,-1.960784,-1.960784,3
0,-2.823529,-2.823529,-0.007843,-0.007843,-0.007843,-1.960784,-1.960784,-1.960784,3
0,-2.823529,-2.823529,-0.007843,-0.007843,-0.007843,-1.960784,-1.960784,-1.960784,3
0,-2.823529,-2.823529,-0.007843,-0.007843,-0.007843,-1.960784,-1.960784,-1.960784,3
0,-2.823529,-2.823529,-0.007843,-0.007843,-0.007843,-1.960784,-1.960784,-1.960784,3
0,-2.823529,-2.823529,-0.007843,-0.007843,-0.007843,-1.960784,-1.960784,-1.960784,3
0,-2.823529,-2.823529,-0.007843,-0.007843,0.007843,-1.960784,-1.960784,-1.960784,3
0,-2.823529,-2.823529,-0.007843,-0.007843,-0.007843,-1.960784,-1.960784,-1.960784,3
0,-2.823529,-2.823529,-0.007843,-0.007843,-0.007843,-1.960784,-1.960784,-1.960784,3
0,-2.823529,-2.823529,-0.007843,-0.007843,0.007843,-1.960784,-1.960784,-1.960784,3
0,-2.823529,-2.823529,-0.007843,-0.007843,-0.007843,-1.960784,-1.960784,-1.960784,3
0,-2.823529,-2.823529,-0.007843,-0.007843,-0.007843,-1.960784,-1.960784,-1.960784,3
0,-2.823529,-2.823529,-0.007843,-0.007843,-0.007843,-1.960784,-1.960784,-1.960784,3
0,-2.823529,-2.823529,-0.007843,-0.007843,-0.007843,-1.960784,-1.960784,-1.960784,3
0,-2.823529,-2.823529,-0.007843,0.007843,-0.007843,-1.960784,-1.960784,-1.960784,3
0,-2.823529,-2.823529,-0.007843,-0.007843,-0.007843,-1.960784,-1.960784,-1.960784,3
0,-2.823529,-2.823529,-0.007843,-0.007843,-0.007843,-1.960784,-1.960784,-1.960784,3
0,-2.823529,-2.823529,-0.007843,-0.007843,-0.007843,-1.960784,-1.960784,-1.960784,3
0,-2.823529,-2.823529,-0.007843,-0.007843,-0.007843,-1.960784,-1.960784,-1.960784,3
0,-2.823529,-2.823529,-0.007843,-0.007843,-0.007843,-1.960784,-1.960784,-1.960784,3
0,-2.823529,-2.823529,-0.007843,-0.007843,-0.007843,-1.960784,-1.960784,-1.960784,3
0,-2.823529,-2.823529,-0.007843,-0.007843,0.007843,-1.960784,-1.960784,-1.960784,3
0,-2.823529,-2.823529,-0.007843,-0.007843,-0.007843,-1.960784,-1.960784,-1.960784,3
0,-2.823529,-2.823529,-0.007843,-0.007843,-0.007843,-1.960784,-1.960784,-1.960784,3
0,-2.823529,-2.823529,-0.007843,-0.007843,-0.007843,-1.960784,-1.960784,-1.960784,3
0,-2.823529,-2.823529,-0.007843,-0.007843,-0.007843,-1.960784,-1.960784,-1.960784,3
0,-2.823529,-2.823529,-0.007843,-0.007843,-0.007843,-1.960784,-1.960784,-1.960784,3
0,-2.823529,-2.823529,-0.007843,-0.007843,-0.007843,-1.960784,-1.960784,-1.960784,3
0,-2.823529,-2.823529,-0.007843,-0.007843,-0.007843,-1.960784,-1.960784,-1.960784,3
0,-2.823529,-2.823529,-0.007843,-0.007843,-0.007843,-1.960784,-1.960784,-1.960784,3
0,-2.823529,-2.823529,-0.007843,-0.007843,-0.007843,-1.960784,-1.960784,-1.960784,3
0,-2.823529,-2.823529,-0.007843,-0.007843,-0.007843,-1.960784,-1.960784,-1.960784,3
0,-2.823529,-2.823529,-0.007843,-0.007843,-0.007843,-1.960784,-1.960784,-1.960784,3
0,-2.823529,-2.823529,-0.007843,-0.007843,-0.007843,-1.960784,-1.960784,-1.960784,3
0,-2.823529,-2.823529,-0.007843,-0.007843,-0.007843,-1.960784,-1.960784,-1.960784,3
0,-2.823529,-2.823529,-0.007843,-0.007843,-0.007843,-1.960784,-1.960784,-1.960784,3
0,-2.823529,-2.823529,-0.007843,-0.007843,-0.007843,-1.960784,-1.960784,-1.960784,3
0,-2.823529,-2.823529,-0.007843,-0.007843,0.007843,-1.960784,-1.960784,-1.960784,3
0,-2.823529,-2.823529,-0.007843,-0.007843,-0.007843,-1.960784,-1.960784,-1.960784,3
0,-2.823529,-2.823529,-0.007843,-0.007843,-0.007843,-1.960784,-1.960784,-1.960784,3
0,-2.823529,-2.823529,-0.007843,-0.007843,-0.007843,-1.960784,-1.960784,-1.960784,3
0,-2.823529,-2.823529,-0.007843,-0.007843,-0.007843,-1.960784,-1.960784,-1.960784,3
0,-2.823529,-2.823529,-0.007843,-0.007843,-0.007843,-1.960784,-1.960784,-1.960784,3
0,-2.823529,-2.823529,-0.007843,-0.007843,-0.007843,-1.960784,-1.960784,-1.960784,3
0,-2.823529,-2.823529,-0.007843,-0.007843,-0.007843,-1.960784,-1.960784,-1.960784,3
0,-2.823529,-2.823529,-0.007843,-0.007843,-0.007843,-1.960784,-1.960784,-1.960784,3
0,-2.823529,-2.823529,-0.007843,-0.007843,-0.007843,-1.960784,-1.960784,-1.960784,3
0,-2.823529,-2.823529,-0.007843,-0.007843,-0.007843,-1.960784,-1.960784,-1.960784,3
0,-2.823529,-2.823529,-0.007843,-0.007843,-0.007843,-1.960784,-1.960784,-1.960784,3
0,-2.823529,-2.823529,-0.007843,-0.007843,-0.007843,-1.960784,-1.960784,-1.960784,3
0,-2.823529,-2.823529,-0.007843,-0.007843,-0.007843,-1.960784,-1.960784,-1.960784,3
0,-2.823529,-2.823529,-0.007843,-0.007843,-0.007843,-1.960784,-1.960784,-1.960784,3
0,-2.823529,-2.823529,-0.007843,-0.007843,-0.007843,-1.960784,-1.960784,-1.960784,3
0,-2.823529,-2.823529,-0.007843,-0.007843,-0.007843,-1.960784,-1.960784,-1.960784,3
0,-2.823529,-2.823529,-0.007843,-0.007843,-0.007843,-1.960784,-1.960784,-1.960784,3
0,-2.823529,0,-0.007843,-0.007843,-0.007843,-1.960784,-1.960784,-1.960784,3
0,-2.823529,-2.823529,-0.007843,-0.007843,-0.007843,-1.960784,-1.960784,-1.960784,3
0,-2.823529,-2.823529,-0.007843,0.007843,0.007843,-1.960784,-1.960784,-1.960784,3
0,-2.823529,0,-0.007843,-0.007843,-0.007843,-1.960784,-1.960784,-1.960784,3
0,-2.823529,0,-0.007843,-0.007843,-0.007843,-1.960784,-1.960784,-1.960784,3
0,-2.823529,0,-0.007843,-0.007843,-0.007843,-1.960784,-1.960784,-1.960784,3
0,-2.823529,0,-0.007843,-0.007843,-0.007843,-1.960784,-1.960784,-1.960784,3
0,-2.823529,0,-0.007843,-0.007843,-0.007843,-1.960784,-1.960784,-1.960784,3
0,-2.823529,0,-0.007843,0.007843,-0.023529,-1.960784,-1.960784,-1.960784,3
0,-2.823529,0,-0.007843,-0.007843,-0.007843,-1.960784,-1.960784,-1.960784,3
0,-2.823529,0,-0.007843,-0.007843,-0.007843,-1.960784,-1.960784,-1.960784,3
0,-2.823529,0,-0.007843,-0.007843,-0.007843,-1.960784,-1.960784,-1.960784,3
0,-2.823529,0,-0.007843,-0.007843,-0.007843,-1.960784,-1.960784,-1.960784,3
0,-2.823529,0,-0.007843,-0.007843,-0.007843,-1.960784,-1.960784,-1.960784,3
0,-2.823529,0,-0.007843,-0.007843,-0.007843,-1.960784,-1.960784,-1.960784,3
0,-2.823529,0,-0.007843,-0.007843,-0.007843,-1.960784,-1.960784,-1.960784,3
0,-2.823529,0,-0.007843,-0.007843,-0.007843,-1.960784,-1.960784,-1.960784,3
0,-2.823529,0,-0.007843,-0.007843,-0.007843,-1.960784,-1.960784,-1.960784,3
0,-2.823529,0,-0.007843,-0.007843,-0.007843,-1.960784,-1.960784,-1.960784,3
0,-2.823529,0,-0.007843,-0.007843,-0.007843,-1.960784,-1.960784,-1.960784,3
0,-2.823529,0,-0.007843,-0.007843,-0.007843,-1.960784,-1.960784,-1.960784,3
0,-2.823529,0,-0.007843,-0.007843,-0.007843,-1.960784,-1.960784,-1.960784,3
0,-2.823529,0,-0.007843,-0.007843,-0.007843,-1.960784,-1.960784,-1.960784,3
0,-2.823529,0,-0.007843,-0.007843,-0.007843,-1.960784,-1.960784,-1.960784,3
0,-2.823529,0,-0.007843,-0.007843,-0.007843,-1.960784,-1.960784,-1.960784,3
0,-2.823529,0,-0.007843,-0.007843,-0.007843,-1.960784,-1.960784,-1.960784,3
0,-2.823529,0,-0.007843,-0.007843,-0.007843,-1.960784,-1.960784,-1.960784,3
0,-2.823529,0,-0.007843,-0.007843,-0.007843,-1.960784,-1.960784,-1.960784,3
0,-2.823529,0,-0.007843,-0.007843,-0.007843,-1.960784,-1.960784,-1.960784,3
0,-2.823529,0,-0.007843,-0.007843,-0.007843,-1.960784,-1.960784,-1.960784,3
0,-2.823529,0,-0.007843,-0.007843,-0.007843,-1.960784,-1.960784,-1.960784,3
0,-2.823529,0,-0.007843,-0.007843,-0.007843,-1.960784,-1.960784,-1.960784,3
0,-2.823529,0,-0.007843,-0.007843,-0.007843,-1.960784,-1.960784,-1.960784,3
0,-2.823529,0,-0.007843,-0.007843,-0.007843,-1.960784,-1.960784,-1.960784,3
0,-2.823529,0,-0.007843,-0.007843,-0.007843,-1.960784,-1.960784,-1.960784,3
0,-2.823529,0,-0.007843,-0.007843,-0.007843,-1.960784,-1.960784,-1.960784,3
0,-2.823529,0,-0.007843,-0.007843,-0.007843,-1.960784,-1.960784,-1.960784,3
0,-2.823529,0,-0.007843,-0.007843,-0.007843,-1.960784,-1.960784,-1.960784,3
0,-2.823529,0,-0.007843,-0.007843,-0.007843,-1.960784,-1.960784,-1.960784,3
0,-2.823529,0,-0.007843,-0.007843,-0.007843,-1.960784,-1.960784,-1.960784,3
0,-2.823529,0,-0.007843,-0.007843,-0.007843,-1.960784,-1.960784,-1.960784,3
0,-2.823529,0,-0.007843,-0.007843,-0.007843,-1.960784,-1.960784,-1.960784,3
0,-2.823529,0,-0.007843,-0.007843,-0.007843,-1.960784,-1.960784,-1.960784,3
0,-2.823529,0,-0.007843,-0.007843,-0.007843,-1.960784,-1.960784,-1.960784,3
0,-2.823529,0,-0.007843,-0.007843,-0.007843,-1.960784,-1.960784,-1.960784,3
0,-2.823529,0,-0.007843,-0.007843,-0.007843,-1.960784,-1.960784,-1.960784,3
0,-2.823529,0,-0.007843,-0.007843,-0.007843,-1.960784,-1.960784,-1.960784,3
0,-2.823529,0,-0.007843,-0.007843,-0.007843,-1.960784,-1.960784,-1.960784,3
0,-2.823529,0,-0.007843,-0.007843,-0.007843,-1.960784,-1.960784,-1.960784,3
0,-2.823529,0,-0.007843,-0.007843,-0.007843,-1.960784,-1.960784,-1.960784,3
0,-2.823529,0,-0.007843,-0.007843,-0.007843,-1.960784,-1.960784,-1.960784,3
0,-2.823529,0,-0.007843,-0.007843,-0.007843,-1.960784,-1.960784,-1.960784,3
0,-2.823529,0,-0.007843,-0.007843,-0.007843,-1.960784,-1.960784,-1.960784,3
0,-2.823529,0,-0.007843,-0.007843,-0.007843,-1.960784,-1.960784,-1.960784,3
0,-2.823529,0,-0.007843,-0.007843,-0.007843,-1.960784,-1.960784,-1.960784,3
0,-2.823529,0,-0.007843,-0.007843,-0.007843,-1.960784,-1.960784,-1.960784,3
0,-2.823529,0,-0.007843,-0.023529,-0.007843,-1.960784,-1.960784,-1.960784,3
0,-2.823529,0,-0.007843,-0.007843,-0.007843,-1.960784,-1.960784,-1.960784,3
0,-2.823529,0,-0.007843,-0.007843,-0.007843,-1.960784,-1.960784,-1.960784,3
0,-2.823529,0,-0.007843,-0.007843,-0.007843,-1.960784,-1.960784,-1.960784,3
0,-2.823529,0,-0.007843,-0.007843,-0.007843,-1.960784,-1.960784,-1.960784,3
0,-2.823529,0,-0.007843,-0.007843,-0.007843,-1.960784,-1.960784,-1.960784,3
0,-2.823529,0,-0.007843,-0.007843,-0.007843,-1.960784,-1.960784,-1.960784,3
0,-2.823529,0,-0.007843,-0.007843,-0.007843,-1.960784,-1.960784,-1.960784,3
0,-2.823529,0,-0.007843,-0.007843,-0.007843,-1.960784,-1.960784,-1.960784,3
0,-2.823529,0,-0.007843,-0.007843,-0.007843,-1.960784,-1.960784,-1.960784,3
0,-2.823529,0,-0.007843,-0.007843,-0.007843,-1.960784,-1.960784,-1.960784,3
0,-2.823529,0,-0.007843,-0.007843,-0.007843,-1.960784,-1.960784,-1.960784,3
0,-2.823529,0,-0.007843,-0.007843,-0.007843,-1.960784,-1.960784,-1.960784,3
0,-2.823529,0,-0.007843,-0.007843,-0.007843,-1.960784,-1.960784,-1.960784,3
0,-2.823529,0,-0.007843,-0.007843,-0.007843,-1.960784,-1.960784,-1.960784,3
0,-2.823529,0,-0.007843,-0.007843,-0.007843,-1.960784,-1.960784,-1.960784,3
0,-2.823529,0,-0.007843,-0.007843,-0.007843,-1.960784,-1.960784,-1.960784,3
0,-2.823529,0,-0.007843,-0.007843,-0.007843,-1.960784,-1.960784,-1.960784,3
0,-2.823529,0,-0.007843,-0.007843,-0.007843,-1.960784,-1.960784,-1.960784,3
0,-2.823529,0,-0.007843,-0.007843,-0.007843,-1.960784,-1.960784,-1.960784,3
0,-2.823529,0,-0.007843,-0.007843,-0.007843,-1.960784,-1.960784,-1.960784,3
0,-2.823529,0,-0.007843,-0.007843,-0.007843,-1.960784,-1.960784,-1.960784,3
0,-2.823529,0,-0.007843,-0.007843,-0.007843,-1.960784,-1.960784,-1.960784,3
0,-2.823529,0,-0.007843,-0.007843,-0.007843,-1.960784,-1.960784,-1.960784,3
0,-2.823529,0,-0.007843,-0.007843,-0.007843,-1.960784,-1.960784,-1.960784,3
0,-2.823529,0,-0.007843,-0.007843,-0.007843,-1.960784,-1.960784,-1.960784,3
0,-2.823529,0,-0.007843,-0.007843,-0.007843,-1.960784,-1.960784,-1.960784,3
0,-2.823529,0,-0.007843,-0.007843,-0.007843,-1.960784,-1.960784,-1.960784,3
0,-2.823529,0,-0.007843,-0.007843,-0.007843,-1.960784,-1.960784,-1.960784,3
0,-2.823529,0,-0.007843,-0.007843,-0.007843,-1.960784,-1.960784,-1.960784,3
0,-2.823529,0,-0.007843,-0.007843,-0.007843,-1.960784,-1.960784,-1.960784,3
0,-2.823529,0,-0.007843,-0.007843,-0.007843,-1.960784,-1.960784,-1.960784,3
0,-2.823529,0,-0.007843,-0.007843,-0.007843,-1.960784,-1.960784,-1.960784,3
0,-2.823529,0,-0.007843,-0.007843,-0.007843,-1.960784,-1.960784,-1.960784,3
0,-2.823529,-2.823529,-0.007843,-0.007843,-0.007843,-1.960784,-1.960784,-1.960784,3
0,-2.823529,0,-0.007843,-0.007843,-0.007843,-1.960784,-1.960784,-1.960784,3
0,-2.823529,0,-0.007843,-0.007843,-0.007843,-1.960784,-1.960784,-1.960784,3
0,-2.823529,0,-0.007843,-0.007843,-0.007843,-1.960784,-1.960784,-1.960784,3
0,-2.823529,-2.823529,-0.007843,-0.007843,-0.007843,-1.960784,-1.960784,-1.960784,3
0,-2.823529,-2.823529,-0.007843,-0.007843,-0.007843,-1.960784,-1.960784,-1.960784,3
0,-2.823529,0,-0.007843,-0.007843,-0.007843,-1.960784,-1.960784,-1.960784,3
0,-2.823529,0,-0.007843,-0.007843,-0.007843,-1.960784,-1.960784,-1.960784,3
0,-2.823529,0,-0.007843,-0.007843,-0.007843,-1.960784,-1.960784,-1.960784,3
0,-2.823529,0,-0.007843,-0.007843,-0.007843,-1.960784,-1.960784,-1.960784,3
0,-2.823529,-2.823529,-0.007843,-0.007843,-0.007843,-1.960784,-1.960784,-1.960784,3
0,-2.823529,-2.823529,-0.007843,-0.007843,0.007843,-1.960784,-1.960784,-1.960784,3
0,-2.823529,-2.823529,-0.007843,-0.007843,-0.007843,-1.960784,-1.960784,-1.960784,3
0,-2.823529,-2.823529,-0.007843,-0.007843,-0.007843,-1.960784,-1.960784,-1.960784,3
0,-2.823529,-2.823529,-0.007843,-0.007843,-0.007843,-1.960784,-1.960784,-1.960784,3
0,-2.823529,-2.823529,-0.007843,-0.007843,0.007843,-1.960784,-1.960784,-1.960784,3
0,-2.823529,-2.823529,-0.007843,-0.007843,-0.007843,-1.960784,-1.960784,-1.960784,3
0,-2.823529,-2.823529,-0.007843,-0.007843,-0.007843,-1.960784,-1.960784,-1.960784,3
0,-2.823529,-2.823529,-0.007843,-0.007843,-0.007843,-1.960784,-1.960784,-1.960784,3
0,-2.823529,-2.823529,-0.007843,-0.007843,-0.007843,-1.960784,-1.960784,-1.960784,3
0,-2.823529,-2.823529,-0.007843,-0.007843,-0.007843,-1.960784,-1.960784,-1.960784,3
0,-2.823529,-2.823529,-0.007843,-0.007843,-0.007843,-1.960784,-1.960784,-1.960784,3
0,-2.823529,-2.823529,-0.007843,-0.007843,-0.007843,-1.960784,-1.960784,-1.960784,3
0,-2.823529,-2.823529,-0.007843,-0.007843,-0.007843,-1.960784,-1.960784,-1.960784,3
0,-2.823529,-2.823529,-0.007843,-0.007843,-0.007843,-1.960784,-1.960784,-1.960784,3
0,-2.823529,-2.823529,-0.007843,-0.007843,-0.007843,-1.960784,-1.960784,-1.960784,3
0,-2.823529,-2.823529,-0.007843,-0.007843,-0.007843,-1.960784,-1.960784,-1.960784,3
0,-2.823529,-2.823529,-0.007843,-0.007843,0.007843,-1.960784,-1.960784,-1.960784,3
0,-2.823529,-2.823529,-0.007843,-0.007843,-0.007843,-1.960784,-1.960784,-1.960784,3
0,-2.823529,-2.823529,-0.007843,-0.007843,-0.007843,-1.960784,-1.960784,-1.960784,3
0,-2.823529,-2.823529,-0.007843,-0.007843,-0.007843,-1.960784,-1.960784,-1.960784,3
0,-2.823529,-2.823529,-0.007843,-0.007843,-0.007843,-1.960784,-1.960784,-1.960784,3
0,-2.823529,-2.823529,-0.007843,-0.007843,-0.007843,-1.960784,-1.960784,-1.960784,3
0,-2.823529,-2.823529,-0.007843,-0.007843,-0.007843,-1.960784,-1.960784,-1.960784,3
0,-2.823529,-2.823529,-0.007843,-0.007843,-0.007843,-1.960784,-1.960784,-1.960784,3
0,-2.823529,-2.823529,-0.007843,-0.007843,-0.007843,-1.960784,-1.960784,-1.960784,3
0,-2.823529,-2.823529,-0.007843,-0.007843,-0.007843,-1.960784,-1.960784,-1.960784,3
0,-2.823529,-2.823529,-0.007843,-0.007843,-0.007843,-1.960784,-1.960784,-1.960784,3
0,-2.823529,-2.823529,-0.007843,-0.007843,-0.007843,-1.960784,-1.960784,-1.960784,3
0,-2.823529,-2.823529,-0.007843,-0.007843,-0.007843,-1.960784,-1.960784,-1.960784,3
0,-2.823529,-2.823529,-0.007843,-0.007843,-0.007843,-1.960784,-1.960784,-1.960784,3
0,-2.823529,-2.823529,-0.007843,-0.007843,-0.007843,-1.960784,-1.960784,-1.960784,3
0,-2.823529,-2.823529,-0.007843,-0.007843,0.007843,-1.960784,-1.960784,-1.960784,3
0,-2.823529,-2.823529,-0.007843,-0.007843,-0.007843,-1.960784,-1.960784,-1.960784,3
0,-2.823529,-2.823529,-0.007843,-0.007843,-0.023529,-1.960784,-1.960784,-1.960784,3
0,-2.823529,-2.823529,-0.007843,-0.007843,0.007843,-1.960784,-1.960784,-1.960784,3
0,-2.823529,-2.823529,-0.007843,-0.007843,-0.007843,-1.960784,-1.960784,-1.960784,3
0,-2.823529,-2.823529,-0.007843,-0.007843,-0.007843,-1.960784,-1.960784,-1.960784,3
0,-2.823529,-2.823529,-0.007843,-0.007843,-0.007843,-1.960784,-1.960784,-1.960784,3
0,-2.823529,-2.823529,-0.007843,-0.007843,0.007843,-1.960784,-1.960784,-1.960784,3
0,-2.823529,-2.823529,-0.007843,-0.007843,-0.007843,-1.960784,-1.960784,-1.960784,3
0,-2.823529,-2.823529,-0.007843,-0.007843,-0.007843,-1.960784,-1.960784,-1.960784,3
0,-2.823529,-2.823529,-0.007843,-0.007843,-0.007843,-1.960784,-1.960784,-1.960784,3
0,-2.823529,-2.823529,-0.007843,-0.007843,-0.007843,-1.960784,-1.960784,-1.960784,3
0,-2.823529,-2.823529,-0.007843,-0.007843,-0.007843,-1.960784,-1.960784,-1.960784,3
0,-2.823529,-2.823529,-0.007843,-0.007843,-0.007843,-1.960784,-1.960784,-1.960784,3
0,-2.823529,-2.823529,-0.007843,-0.007843,0.007843,-1.960784,-1.960784,-1.960784,3
0,-2.823529,-2.823529,-0.007843,-0.007843,-0.007843,-1.960784,-1.960784,-1.960784,3
0,-2.823529,-2.823529,-0.007843,-0.007843,0.007843,-1.960784,-1.960784,-1.960784,3
0,-2.823529,-2.823529,-0.007843,-0.007843,-0.007843,-1.960784,-1.960784,-1.960784,3
0,-2.823529,-2.823529,-0.007843,-0.007843,-0.007843,-1.960784,-1.960784,-1.960784,3
0,-2.823529,-2.823529,-0.007843,-0.007843,-0.007843,-1.960784,-1.960784,-1.960784,3
0,-2.823529,-2.823529,-0.007843,-0.007843,-0.007843,-1.960784,-1.960784,-1.960784,3
0,-2.823529,-2.823529,-0.007843,-0.007843,-0.007843,-1.960784,-1.960784,-1.960784,3
0,-2.823529,-2.823529,-0.007843,-0.007843,-0.007843,-1.960784,-1.960784,-1.960784,3
0,-2.823529,-2.823529,-0.007843,-0.007843,-0.007843,-1.960784,-1.960784,-1.960784,3
0,-2.823529,-2.823529,-0.007843,-0.007843,-0.007843,-1.960784,-1.960784,-1.960784,3
0,-2.823529,-2.823529,-0.007843,-0.007843,-0.007843,-1.960784,-1.960784,-1.960784,3
0,-2.823529,-2.823529,-0.007843,-0.007843,-0.007843,-1.960784,-1.960784,-1.960784,3
0,-2.823529,-2.823529,-0.007843,-0.007843,-0.007843,-1.960784,-1.960784,-1.960784,3
0,-2.823529,-2.823529,-0.007843,-0.023529,-0.007843,-1.960784,-1.960784,-1.960784,3
0,-2.823529,-2.823529,-0.007843,0.007843,-0.039216,-1.960784,-1.960784,-1.960784,3
0,-2.823529,-2.823529,-0.007843,-0.007843,0.007843,-1.960784,-1.960784,-1.960784,3
0,-2.823529,-2.823529,-0.007843,-0.007843,-0.023529,-1.960784,-1.960784,-1.960784,3
0,-2.823529,-2.823529,-0.007843,-0.007843,-0.023529,-1.960784,-1.960784,-1.960784,3
0,-2.823529,-2.823529,-0.007843,-0.007843,-0.007843,-1.960784,-1.960784,-1.960784,3
0,-2.823529,-2.823529,-0.007843,0.007843,-0.007843,-1.960784,-1.960784,-1.960784,3
0,-2.823529,-2.823529,-0.007843,-0.007843,0.007843,-1.960784,-1.960784,-1.960784,3
0,-2.823529,-2.823529,-0.007843,-0.007843,-0.007843,-1.960784,-1.960784,-1.960784,3
0,-2.823529,-2.823529,-0.007843,-0.007843,-0.007843,-1.960784,-1.960784,-1.960784,3
0,-2.823529,-2.823529,-0.007843,-0.007843,-0.007843,-1.960784,-1.960784,-1.960784,3
0,-2.823529,-2.823529,-0.007843,-0.007843,-0.007843,-1.960784,-1.960784,-1.960784,3
0,-2.823529,-2.823529,-0.007843,-0.007843,-0.007843,-1.960784,-1.960784,-1.960784,3
0,-2.823529,-2.823529,-0.007843,-0.007843,-0.007843,-1.960784,-1.960784,-1.960784,3
0,-2.823529,-2.823529,-0.007843,-0.007843,-0.007843,-1.960784,-1.960784,-1.960784,3
0,-2.823529,-2.823529,-0.007843,-0.007843,-0.007843,-1.960784,-1.960784,-1.960784,3
0,-2.823529,-2.823529,-0.007843,-0.007843,-0.007843,-1.960784,-1.960784,-1.960784,3
0,-2.823529,-2.823529,-0.007843,-0.007843,-0.007843,-1.960784,-1.960784,-1.960784,3
0,-2.823529,-2.823529,-0.007843,-0.007843,-0.007843,-1.960784,-1.960784,-1.960784,3
0,-2.823529,-2.823529,-0.007843,-0.007843,-0.007843,-1.960784,-1.960784,-1.960784,3
0,-2.823529,-2.823529,-0.007843,-0.007843,-0.007843,-1.960784,-1.960784,-1.960784,3
0,-2.823529,-2.823529,-0.007843,-0.007843,-0.007843,-1.960784,-1.960784,-1.960784,3
0,-2.823529,-2.823529,-0.007843,-0.007843,-0.007843,-1.960784,-1.960784,-1.960784,3
0,-2.823529,-2.823529,-0.007843,-0.007843,-0.007843,-1.960784,-1.960784,-1.960784,3
0,-2.823529,-2.823529,-0.007843,-0.007843,-0.007843,-1.960784,-1.960784,-1.960784,3
0,-2.823529,-2.823529,-0.007843,-0.007843,-0.007843,-1.960784,-1.960784,-1.960784,3
0,-2.823529,-2.823529,-0.007843,-0.007843,-0.007843,-1.960784,-1.960784,-1.960784,3
0,-2.823529,-2.823529,-0.007843,-0.007843,-0.007843,-1.960784,-1.960784,-1.960784,3
0,-2.823529,-2.823529,-0.007843,-0.007843,-0.007843,-1.960784,-1.960784,-1.960784,3
0,-2.823529,-2.823529,-0.007843,-0.007843,-0.007843,-1.960784,-1.960784,-1.960784,3
0,-2.823529,-2.823529,-0.007843,-0.007843,-0.007843,-1.960784,-1.960784,-1.960784,3
0,-2.823529,-2.823529,-0.007843,-0.007843,-0.007843,-1.960784,-1.960784,-1.960784,3
0,-2.823529,-2.823529,-0.007843,-0.007843,-0.007843,-1.960784,-1.960784,-1.960784,3
0,-2.823529,-2.823529,-0.007843,-0.007843,-0.007843,-1.960784,-1.960784,-1.960784,3
0,-2.823529,-2.823529,-0.007843,-0.007843,-0.007843,-1.960784,-1.960784,-1.960784,3
0,-2.823529,-2.823529,-0.007843,-0.007843,-0.007843,-1.960784,-1.960784,-1.960784,3
0,-2.823529,-2.823529,-0.007843,-0.007843,0.007843,-1.960784,-1.960784,-1.960784,3
0,-2.823529,-2.823529,-0.007843,-0.007843,0.007843,-1.960784,-1.960784,-1.960784,3
0,-2.823529,-2.823529,-0.007843,-0.007843,-0.007843,-1.960784,-1.960784,-1.960784,3
0,-2.823529,-2.823529,-0.007843,-0.007843,-0.007843,-1.960784,-1.960784,-1.960784,3
0,-2.823529,-2.823529,-0.007843,-0.007843,-0.007843,-1.960784,-1.960784,-1.960784,3
0,-2.823529,-2.823529,-0.007843,-0.007843,-0.007843,-1.960784,-1.960784,-1.960784,3
0,-2.823529,-2.823529,-0.007843,-0.007843,-0.007843,-1.960784,-1.960784,-1.960784,3
0,-2.823529,-2.823529,-0.007843,-0.007843,-0.007843,-1.960784,-1.960784,-1.960784,3
0,-2.823529,-2.823529,-0.007843,-0.007843,-0.007843,-1.960784,-1.960784,-1.960784,3
0,-2.823529,-2.823529,-0.007843,-0.007843,-0.007843,-1.960784,-1.960784,-1.960784,3
0,-2.823529,-2.823529,-0.007843,-0.007843,-0.007843,-1.960784,-1.960784,-1.960784,3
0,-2.823529,-2.823529,-0.007843,-0.007843,-0.007843,-1.960784,-1.960784,-1.960784,3
0,-2.823529,-2.823529,-0.007843,-0.007843,-0.007843,-1.960784,-1.960784,-1.960784,3
0,-2.823529,-2.823529,-0.007843,-0.007843,-0.007843,-1.960784,-1.960784,-1.960784,3
0,-2.823529,-2.823529,-0.007843,-0.007843,-0.007843,-1.960784,-1.960784,-1.960784,3
0,-2.823529,-2.823529,-0.007843,-0.007843,-0.007843,-1.960784,-1.960784,-1.960784,3
0,-2.823529,-2.823529,-0.007843,-0.007843,-0.007843,-1.960784,-1.960784,-1.960784,3
0,-2.823529,-2.823529,-0.007843,-0.007843,-0.007843,-1.960784,-1.960784,-1.960784,3
0,-2.823529,-2.823529,-0.007843,-0.007843,-0.007843,-1.960784,-1.960784,-1.960784,3
0,-2.823529,-2.823529,-0.007843,-0.007843,-0.007843,-1.960784,-1.960784,-1.960784,3
0,-2.823529,-2.823529,-0.007843,-0.007843,0.007843,-1.960784,-1.960784,-1.960784,3
0,-2.823529,-2.823529,-0.007843,-0.007843,-0.007843,-1.960784,-1.960784,-1.960784,3
0,-2.823529,-2.823529,-0.007843,-0.007843,-0.007843,-1.960784,-1.960784,-1.960784,3
0,-2.823529,-2.823529,-0.007843,-0.007843,-0.007843,-1.960784,-1.960784,-1.960784,3
0,-2.823529,-2.823529,-0.007843,-0.007843,-0.007843,-1.960784,-1.960784,-1.960784,3
0,-2.823529,-2.823529,-0.007843,-0.007843,-0.023529,-1.960784,-1.960784,-1.960784,3
0,-2.823529,-2.823529,-0.007843,-0.007843,-0.007843,-1.960784,-1.960784,-1.960784,3
0,-2.823529,-2.823529,-0.007843,-0.007843,-0.007843,-1.960784,-1.960784,-1.960784,3
0,-2.823529,-2.823529,-0.007843,-0.007843,-0.007843,-1.960784,-1.960784,-1.960784,3
0,-2.823529,-2.823529,-0.007843,-0.007843,-0.007843,-1.960784,-1.960784,-1.960784,3
0,-2.823529,-2.823529,-0.007843,-0.007843,-0.007843,-1.960784,-1.960784,-1.960784,3
0,-2.823529,-2.823529,-0.007843,-0.007843,0.007843,-1.960784,-1.960784,-1.960784,3
0,-2.823529,-2.823529,-0.007843,-0.007843,-0.007843,-1.960784,-1.960784,-1.960784,3
0,-2.823529,-2.823529,-0.007843,-0.007843,-0.007843,-1.960784,-1.960784,-1.960784,3
0,-2.823529,-2.823529,-0.007843,-0.007843,-0.007843,-1.960784,-1.960784,-1.960784,3
0,-2.823529,-2.823529,-0.007843,0.007843,0.023529,-1.960784,-1.960784,-1.960784,3
0,-2.823529,-2.823529,-0.007843,0.007843,-0.023529,-1.960784,-1.960784,-1.960784,3
0,-2.823529,-2.823529,-0.007843,-0.007843,0.007843,-1.960784,-1.960784,-1.960784,3
0,-2.823529,-2.823529,-0.007843,-0.007843,-0.007843,-1.960784,-1.960784,-1.960784,3
0,-2.823529,-2.823529,-0.007843,-0.007843,-0.007843,-1.960784,-1.960784,-1.960784,3
0,-2.823529,-2.823529,-0.007843,-0.007843,-0.007843,-1.960784,-1.960784,-1.960784,3
0,-2.823529,-2.823529,-0.007843,-0.007843,-0.007843,-1.960784,-1.960784,-1.960784,3
0,-2.823529,-2.823529,-0.007843,-0.007843,-0.007843,-1.960784,-1.960784,-1.960784,3
0,-2.823529,-2.823529,-0.007843,-0.007843,-0.007843,-1.960784,-1.960784,-1.960784,3
0,-2.823529,-2.823529,-0.007843,-0.007843,-0.007843,-1.960784,-1.960784,-1.960784,3
0,-2.823529,-2.823529,-0.007843,-0.007843,-0.007843,-1.960784,-1.960784,-1.960784,3
0,-2.823529,-2.823529,-0.007843,-0.007843,-0.007843,-1.960784,-1.960784,-1.960784,3
0,-2.823529,-2.823529,-0.007843,-0.007843,-0.007843,-1.960784,-1.960784,-1.960784,3
0,-2.823529,-2.823529,-0.007843,-0.007843,-0.007843,-1.960784,-1.960784,-1.960784,3
0,-2.823529,-2.823529,-0.007843,-0.007843,-0.007843,-1.960784,-1.960784,-1.960784,3
0,-2.823529,-2.823529,-0.007843,-0.007843,-0.007843,-1.960784,-1.960784,-1.960784,3
0,-2.823529,-2.823529,-0.007843,-0.007843,-0.007843,-1.960784,-1.960784,-1.960784,3
0,-2.823529,-2.823529,-0.007843,-0.007843,-0.007843,-1.960784,-1.960784,-1.960784,3
0,-2.823529,-2.823529,-0.007843,-0.007843,-0.007843,-1.960784,-1.960784,-1.960784,3
0,-2.823529,-2.823529,-0.007843,-0.007843,-0.007843,-1.960784,-1.960784,-1.960784,3
0,-2.823529,-2.823529,-0.007843,-0.007843,-0.007843,-1.960784,-1.960784,-1.960784,3
0,-2.823529,-2.823529,-0.007843,-0.007843,-0.007843,-1.960784,-1.960784,-1.960784,3
0,-2.823529,-2.823529,-0.007843,0.007843,0.007843,-1.960784,-1.960784,-1.960784,3
0,-2.823529,-2.823529,-0.007843,-0.007843,-0.007843,-1.960784,-1.960784,-1.960784,3
0,-2.823529,-2.823529,-0.007843,-0.007843,-0.007843,-1.960784,-1.960784,-1.960784,3
0,-2.823529,-2.823529,-0.007843,-0.007843,-0.007843,-1.960784,-1.960784,-1.960784,3
0,-2.823529,-2.823529,-0.007843,-0.007843,-0.007843,-1.960784,-1.960784,-1.960784,3
0,-2.823529,-2.823529,-0.007843,-0.007843,-0.007843,-1.960784,-1.960784,-1.960784,3
0,-2.823529,-2.823529,-0.007843,-0.007843,-0.007843,-1.960784,-1.960784,-1.960784,3
0,-2.823529,-2.823529,-0.007843,-0.007843,-0.007843,-1.960784,-1.960784,-1.960784,3
0,-2.823529,-2.823529,-0.007843,-0.007843,-0.007843,-1.960784,-1.960784,-1.960784,3
0,-2.823529,-2.823529,-0.007843,-0.007843,-0.007843,-1.960784,-1.960784,-1.960784,3
0,-2.823529,-2.823529,-0.007843,-0.007843,-0.007843,-1.960784,-1.960784,-1.960784,3
0,-2.823529,-2.823529,-0.007843,-0.007843,-0.007843,-1.960784,-1.960784,-1.960784,3
0,-2.823529,-2.823529,-0.007843,-0.007843,-0.007843,-1.960784,-1.960784,-1.960784,3
0,-2.823529,-2.823529,-0.007843,-0.007843,-0.007843,-1.960784,-1.960784,-1.960784,3
0,-2.823529,-2.823529,-0.007843,-0.007843,-0.007843,-1.960784,-1.960784,-1.960784,3
0,-2.823529,-2.823529,-0.007843,-0.007843,-0.007843,-1.960784,-1.960784,-1.960784,3
0,-2.823529,-2.823529,-0.007843,-0.007843,-0.007843,-1.960784,-1.960784,-1.960784,3
0,-2.823529,-2.823529,-0.007843,-0.007843,-0.007843,-1.960784,-1.960784,-1.960784,3
0,-2.823529,-2.823529,-0.007843,-0.007843,-0.007843,-1.960784,-1.960784,-1.960784,3
0,-2.823529,-2.823529,-0.007843,-0.007843,-0.007843,-1.960784,-1.960784,-1.960784,3
0,-2.823529,-2.823529,-0.007843,-0.007843,-0.007843,-1.960784,-1.960784,-1.960784,3
0,-2.823529,-2.823529,-0.007843,-0.007843,-0.007843,-1.960784,-1.960784,-1.960784,3
0,-2.823529,-2.823529,-0.007843,-0.007843,-0.007843,-1.960784,-1.960784,-1.960784,3
0,-2.823529,-2.823529,-0.007843,-0.007843,-0.007843,-1.960784,-1.960784,-1.960784,3
0,-2.823529,-2.823529,-0.007843,-0.007843,-0.007843,-1.960784,-1.960784,-1.960784,3
0,-2.823529,-2.823529,-0.007843,-0.007843,-0.007843,-1.960784,-1.960784,-1.960784,3
0,-2.823529,-2.823529,-0.007843,-0.007843,-0.007843,-1.960784,-1.960784,-1.960784,3
0,-2.823529,-2.823529,-0.007843,-0.007843,-0.007843,-1.960784,-1.960784,-1.960784,3
0,-2.823529,-2.823529,-0.007843,-0.007843,-0.007843,-1.960784,-1.960784,-1.960784,3
0,-2.823529,-2.823529,-0.007843,-0.007843,-0.007843,-1.960784,-1.960784,-1.960784,3
0,-2.823529,-2.823529,-0.007843,-0.007843,-0.007843,-1.960784,-1.960784,-1.960784,3
0,-2.823529,-2.823529,-0.007843,-0.007843,-0.007843,-1.960784,-1.960784,-1.960784,3
0,-2.823529,-2.823529,-0.007843,-0.007843,-0.007843,-1.960784,-1.960784,-1.960784,3
0,-2.823529,-2.823529,-0.007843,-0.007843,-0.007843,-1.960784,-1.960784,-1.960784,3
0,-2.823529,-2.823529,-0.007843,-0.007843,-0.007843,-1.960784,-1.960784,-1.960784,3
0,-2.823529,-2.823529,-0.007843,-0.007843,-0.007843,-1.960784,-1.960784,-1.960784,3
0,-2.823529,-2.823529,-0.007843,-0.007843,-0.007843,-1.960784,-1.960784,-1.960784,3
0,-2.823529,-2.823529,-0.007843,-0.007843,-0.007843,-1.960784,-1.960784,-1.960784,3
0,-2.823529,-2.823529,-0.007843,-0.007843,-0.007843,-1.960784,-1.960784,-1.960784,3
0,-2.823529,-2.823529,-0.007843,-0.007843,-0.007843,-1.960784,-1.960784,-1.960784,3
0,-2.823529,-2.823529,-0.007843,-0.007843,-0.007843,-1.960784,-1.960784,-1.960784,3
0,-2.823529,-2.823529,-0.007843,-0.007843,-0.007843,-1.960784,-1.960784,-1.960784,3
0,-2.823529,-2.823529,-0.007843,-0.007843,-0.007843,-1.960784,-1.960784,-1.960784,3
0,-2.823529,-2.823529,-0.007843,-0.007843,-0.007843,-1.960784,-1.960784,-1.960784,3
0,-2.823529,-2.823529,-0.007843,-0.007843,-0.007843,-1.960784,-1.960784,-1.960784,3
0,-2.823529,-2.823529,-0.007843,-0.007843,-0.007843,-1.960784,-1.960784,-1.960784,3
0,-2.823529,-2.823529,-0.007843,-0.007843,-0.007843,-1.960784,-1.960784,-1.960784,3
0,-2.823529,-2.823529,-0.007843,-0.007843,0.007843,-1.960784,-1.960784,-1.960784,3
0,-2.823529,-2.823529,-0.007843,-0.007843,-0.007843,-1.960784,-1.960784,-1.960784,3
0,-2.823529,-2.823529,-0.007843,-0.007843,-0.007843,-1.960784,-1.960784,-1.960784,3
0,-2.823529,-2.823529,-0.007843,-0.007843,-0.007843,-1.960784,-1.960784,-1.960784,3
0,-2.823529,-2.823529,-0.007843,-0.007843,-0.007843,-1.960784,-1.960784,-1.960784,3
0,-2.823529,-2.823529,-0.007843,-0.007843,-0.007843,-1.960784,-1.960784,-1.960784,3
0,-2.823529,-2.823529,-0.007843,-0.007843,-0.007843,-1.960784,-1.960784,-1.960784,3
0,-2.823529,-2.823529,-0.007843,-0.007843,-0.007843,-1.960784,-1.960784,-1.960784,3
0,-2.823529,-2.823529,-0.007843,-0.007843,-0.007843,-1.960784,-1.960784,-1.960784,3
0,-2.823529,-2.823529,-0.007843,-0.007843,-0.007843,-1.960784,-1.960784,-1.960784,3
0,-2.823529,-2.823529,-0.007843,-0.007843,-0.007843,-1.960784,-1.960784,-1.960784,3
0,-2.823529,-2.823529,-0.007843,-0.007843,-0.007843,-1.960784,-1.960784,-1.960784,3
0,-2.823529,-2.823529,-0.007843,-0.007843,-0.007843,-1.960784,-1.960784,-1.960784,3
0,-2.823529,-2.823529,-0.007843,-0.007843,-0.007843,-1.960784,-1.960784,-1.960784,3
0,-2.823529,-2.823529,-0.007843,-0.007843,-0.007843,-1.960784,-1.960784,-1.960784,3
0,-2.823529,-2.823529,-0.007843,-0.007843,-0.007843,-1.960784,-1.960784,-1.960784,3
0,-2.823529,-2.823529,-0.007843,-0.007843,-0.007843,-1.960784,-1.960784,-1.960784,3
0,-2.823529,-2.823529,-0.007843,-0.007843,-0.007843,-1.960784,-1.960784,-1.960784,3
0,-2.823529,-2.823529,-0.007843,-0.007843,-0.007843,-1.960784,-1.960784,-1.960784,3
0,-2.823529,-2.823529,-0.007843,-0.007843,-0.007843,-1.960784,-1.960784,-1.960784,3
0,-2.823529,-2.823529,-0.007843,-0.007843,-0.007843,-1.960784,-1.960784,-1.960784,3
0,-2.823529,-2.823529,-0.007843,-0.007843,-0.007843,-1.960784,-1.960784,-1.960784,3
0,-2.823529,-2.823529,-0.007843,-0.007843,-0.007843,-1.960784,-1.960784,-1.960784,3
0,-2.823529,-2.823529,-0.007843,-0.007843,-0.007843,-1.960784,-1.960784,-1.960784,3
0,-2.823529,-2.823529,-0.007843,-0.007843,-0.007843,-1.960784,-1.960784,-1.960784,3
0,-2.823529,-2.823529,-0.007843,-0.007843,-0.007843,-1.960784,-1.960784,-1.960784,3
0,-2.823529,-2.823529,-0.007843,-0.007843,-0.007843,-1.960784,-1.960784,-1.960784,3
0,-2.823529,-2.823529,-0.007843,-0.007843,-0.007843,-1.960784,-1.960784,-1.960784,3
0,-2.823529,-2.823529,-0.007843,-0.007843,-0.007843,-1.960784,-1.960784,-1.960784,3
0,-2.823529,-2.823529,-0.007843,-0.007843,-0.007843,-1.960784,-1.960784,-1.960784,3
0,-2.823529,-2.823529,-0.007843,-0.007843,-0.007843,-1.960784,-1.960784,-1.960784,3
0,-2.823529,-2.823529,-0.007843,-0.007843,-0.007843,-1.960784,-1.960784,-1.960784,3
0,-2.823529,-2.823529,-0.007843,-0.007843,0.007843,-1.960784,-1.960784,-1.960784,3
0,-2.823529,-2.823529,-0.007843,-0.007843,-0.007843,-1.960784,-1.960784,-1.960784,3
0,-2.823529,-2.823529,-0.007843,-0.007843,-0.007843,-1.960784,-1.960784,-1.960784,3
0,-2.823529,-2.823529,-0.007843,-0.007843,-0.007843,-1.960784,-1.960784,-1.960784,3
0,-2.823529,-2.823529,-0.007843,0.007843,-0.007843,-1.960784,-1.960784,-1.960784,3
0,-2.823529,-2.823529,-0.007843,-0.007843,-0.007843,-1.960784,-1.960784,-1.960784,3
0,-2.823529,-2.823529,-0.007843,-0.007843,-0.007843,-1.960784,-1.960784,-1.960784,3
0,-2.823529,-2.823529,-0.007843,-0.007843,-0.007843,-1.960784,-1.960784,-1.960784,3
0,-2.823529,-2.823529,-0.007843,-0.007843,-0.007843,-1.960784,-1.960784,-1.960784,3
0,-2.823529,-2.823529,-0.007843,-0.007843,-0.007843,-1.960784,-1.960784,-1.960784,3
0,-2.823529,-2.823529,-0.007843,-0.007843,-0.007843,-1.960784,-1.960784,-1.960784,3
0,-2.823529,-2.823529,-0.007843,-0.007843,-0.007843,-1.960784,-1.960784,-1.960784,3
0,-2.823529,-2.823529,-0.007843,-0.007843,-0.007843,-1.960784,-1.960784,-1.960784,3
0,-2.823529,-2.823529,-0.007843,-0.007843,-0.007843,-1.960784,-1.960784,-1.960784,3
0,-2.823529,-2.823529,-0.007843,-0.007843,-0.007843,-1.960784,-1.960784,-1.960784,3
0,-2.823529,-2.823529,-0.007843,-0.007843,-0.007843,-1.960784,-1.960784,-1.960784,3
0,-2.823529,-2.823529,-0.007843,-0.007843,-0.007843,-1.960784,-1.960784,-1.960784,3
0,-2.823529,-2.823529,-0.007843,-0.007843,-0.007843,-1.960784,-1.960784,-1.960784,3
0,-2.823529,-2.823529,-0.007843,-0.007843,-0.007843,-1.960784,-1.960784,-1.960784,3
0,-2.823529,-2.823529,-0.007843,-0.007843,-0.007843,-1.960784,-1.960784,-1.960784,3
0,-2.823529,-2.823529,-0.007843,-0.007843,-0.007843,-1.960784,-1.960784,-1.960784,3
0,-2.823529,-2.823529,-0.007843,-0.007843,-0.007843,-1.960784,-1.960784,-1.960784,3
0,-2.823529,-2.823529,-0.007843,-0.007843,-0.007843,-1.960784,-1.960784,-1.960784,3
0,-2.823529,-2.823529,-0.007843,-0.007843,-0.007843,-1.960784,-1.960784,-1.960784,3
0,-2.823529,-2.823529,-0.007843,-0.007843,-0.007843,-1.960784,-1.960784,-1.960784,3
0,-2.823529,-2.823529,-0.007843,-0.007843,-0.007843,-1.960784,-1.960784,-1.960784,3
0,-2.823529,-2.823529,-0.007843,-0.007843,-0.007843,-1.960784,-1.960784,-1.960784,3
0,-2.823529,-2.823529,-0.007843,-0.007843,-0.007843,-1.960784,-1.960784,-1.960784,3
0,-2.823529,-2.823529,-0.007843,-0.007843,-0.007843,-1.960784,-1.960784,-1.960784,3
0,-2.823529,-2.823529,-0.007843,-0.007843,-0.007843,-1.960784,-1.960784,-1.960784,3
0,-2.823529,-2.823529,-0.007843,-0.007843,-0.007843,-1.960784,-1.960784,-1.960784,3
0,-2.823529,-2.823529,-0.007843,-0.007843,-0.007843,-1.960784,-1.960784,-1.960784,3
0,-2.823529,-2.823529,-0.007843,-0.007843,-0.007843,-1.960784,-1.960784,-1.960784,3
0,-2.823529,-2.823529,-0.007843,-0.007843,-0.007843,-1.960784,-1.960784,-1.960784,3
0,-2.823529,-2.823529,-0.007843,-0.007843,-0.007843,-1.960784,-1.960784,-1.960784,3
0,-2.823529,-2.823529,-0.007843,-0.007843,-0.007843,-1.960784,-1.960784,-1.960784,3
0,-2.823529,-2.823529,-0.007843,-0.007843,-0.007843,-1.960784,-1.960784,-1.960784,3
0,-2.823529,-2.823529,-0.007843,-0.007843,-0.007843,-1.960784,-1.960784,-1.960784,3
0,-2.823529,-2.823529,-0.007843,-0.007843,-0.007843,-1.960784,-1.960784,-1.960784,3
0,-2.823529,-2.823529,-0.007843,-0.007843,-0.007843,-1.960784,-1.960784,-1.960784,3
0,-2.823529,-2.823529,-0.007843,0.007843,-0.007843,-1.960784,-1.960784,-1.960784,3
0,-2.823529,-2.823529,-0.007843,-0.007843,-0.007843,-1.960784,-1.960784,-1.960784,3
0,-2.823529,-2.823529,-0.007843,-0.007843,-0.007843,-1.960784,-1.960784,-1.960784,3
0,-2.823529,-2.823529,-0.007843,-0.007843,-0.007843,-1.960784,-1.960784,-1.960784,3
0,-2.823529,-2.823529,-0.007843,-0.007843,-0.007843,-1.960784,-1.960784,-1.960784,3
0,-2.823529,-2.823529,-0.007843,-0.007843,-0.007843,-1.960784,-1.960784,-1.960784,3
0,-2.823529,-2.823529,-0.007843,-0.007843,-0.007843,-1.960784,-1.960784,-1.960784,3
0,-2.823529,-2.823529,-0.007843,-0.007843,-0.007843,-1.960784,-1.960784,-1.960784,3
0,-2.823529,-2.823529,-0.007843,-0.007843,-0.007843,-1.960784,-1.960784,-1.960784,3
0,-2.823529,-2.823529,-0.007843,-0.007843,-0.007843,-1.960784,-1.960784,-1.960784,3
0,-2.823529,-2.823529,-0.007843,-0.007843,-0.007843,-1.960784,-1.960784,-1.960784,3
0,-2.823529,-2.823529,-0.007843,-0.007843,-0.007843,-1.960784,-1.960784,-1.960784,3
0,-2.823529,-2.823529,-0.007843,-0.007843,-0.007843,-1.960784,-1.960784,-1.960784,3
0,-2.823529,-2.823529,-0.007843,-0.007843,-0.007843,-1.960784,-1.960784,-1.960784,3
0,-2.823529,-2.823529,-0.007843,-0.007843,-0.007843,-1.960784,-1.960784,-1.960784,3
0,-2.823529,-2.823529,-0.007843,-0.007843,-0.007843,-1.960784,-1.960784,-1.960784,3
0,-2.823529,-2.823529,-0.007843,-0.007843,-0.007843,-1.960784,-1.960784,-1.960784,3
0,-2.823529,-2.823529,-0.007843,0.007843,-0.007843,-1.960784,-1.960784,-1.960784,3
0,-2.823529,-2.823529,-0.007843,-0.007843,-0.007843,-1.960784,-1.960784,-1.960784,3
0,-2.823529,-2.823529,-0.007843,-0.007843,-0.007843,-1.960784,-1.960784,-1.960784,3
0,-2.823529,-2.823529,-0.007843,-0.007843,-0.007843,-1.960784,-1.960784,-1.960784,3
0,-2.823529,-2.823529,-0.007843,-0.007843,-0.007843,-1.960784,-1.960784,-1.960784,3
0,-2.823529,-2.823529,-0.007843,-0.007843,-0.007843,-1.960784,-1.960784,-1.960784,3
0,-2.823529,-2.823529,-0.007843,-0.007843,-0.007843,-1.960784,-1.960784,-1.960784,3
0,-2.823529,-2.823529,-0.007843,-0.007843,-0.007843,-1.960784,-1.960784,-1.960784,3
0,-2.823529,-2.823529,-0.007843,-0.007843,-0.007843,-1.960784,-1.960784,-1.960784,3
0,-2.823529,-2.823529,-0.007843,-0.007843,-0.007843,-1.960784,-1.960784,-1.960784,3
0,-2.823529,-2.823529,-0.007843,-0.007843,-0.007843,-1.960784,-1.960784,-1.960784,3
0,-2.823529,-2.823529,-0.007843,-0.007843,-0.007843,-1.960784,-1.960784,-1.960784,3
0,-2.823529,-2.823529,-0.007843,-0.007843,-0.007843,-1.960784,-1.960784,-1.960784,3
0,-2.823529,-2.823529,-0.007843,-0.007843,-0.007843,-1.960784,-1.960784,-1.960784,3
0,-2.823529,-2.823529,-0.007843,-0.007843,-0.007843,-1.960784,-1.960784,-1.960784,3
0,-2.823529,-2.823529,-0.007843,-0.007843,-0.007843,-1.960784,-1.960784,-1.960784,3
0,-2.823529,-2.823529,-0.007843,-0.007843,0.007843,-1.960784,-1.960784,-1.960784,3
0,-2.823529,-2.823529,-0.007843,-0.007843,-0.007843,-1.960784,-1.960784,-1.960784,3
0,-2.823529,-2.823529,-0.007843,-0.007843,-0.007843,-1.960784,-1.960784,-1.960784,3
0,-2.823529,-2.823529,-0.007843,-0.007843,-0.007843,-1.960784,-1.960784,-1.960784,3
0,-2.823529,-2.823529,-0.007843,-0.007843,-0.007843,-1.960784,-1.960784,-1.960784,3
0,-2.823529,-2.823529,-0.007843,-0.007843,-0.007843,-1.960784,-1.960784,-1.960784,3
0,-2.823529,-2.823529,-0.007843,-0.007843,-0.007843,-1.960784,-1.960784,-1.960784,3
0,-2.823529,-2.823529,-0.007843,-0.007843,-0.007843,-1.960784,-1.960784,-1.960784,3
0,-2.823529,-2.823529,-0.007843,-0.007843,-0.007843,-1.960784,-1.960784,-1.960784,3
0,-2.823529,-2.823529,-0.007843,-0.007843,-0.007843,-1.960784,-1.960784,-1.960784,3
0,-2.823529,-2.823529,-0.007843,-0.007843,-0.007843,-1.960784,-1.960784,-1.960784,3
0,-2.823529,-2.823529,-0.007843,-0.007843,-0.007843,-1.960784,-1.960784,-1.960784,3
0,-2.823529,-2.823529,-0.007843,-0.007843,-0.007843,-1.960784,-1.960784,-1.960784,3
0,-2.823529,-2.823529,-0.007843,-0.007843,-0.007843,-1.960784,-1.960784,-1.960784,3
0,-2.823529,-2.823529,-0.007843,-0.007843,-0.007843,-1.960784,-1.960784,-1.960784,3
0,-2.823529,-2.823529,-0.007843,-0.007843,-0.007843,-1.960784,-1.960784,-1.960784,3
0,-2.823529,-2.823529,-0.007843,-0.007843,-0.007843,-1.960784,-1.960784,-1.960784,3
0,-2.823529,-2.823529,-0.007843,-0.007843,-0.007843,-1.960784,-1.960784,-1.960784,3
0,-2.823529,-2.823529,-0.007843,-0.007843,-0.007843,-1.960784,-1.960784,-1.960784,3
0,-2.823529,-2.823529,-0.007843,-0.007843,-0.007843,-1.960784,-1.960784,-1.960784,3
0,-2.823529,-2.823529,-0.007843,-0.007843,-0.007843,-1.960784,-1.960784,-1.960784,3
0,-2.823529,-2.823529,-0.007843,-0.007843,-0.007843,-1.960784,-1.960784,-1.960784,3
0,-2.823529,-2.823529,-0.007843,-0.007843,-0.007843,-1.960784,-1.960784,-1.960784,3
0,-2.823529,-2.823529,-0.007843,-0.007843,-0.007843,-1.960784,-1.960784,-1.960784,3
0,-2.823529,-2.823529,-0.007843,0.007843,-0.007843,-1.960784,-1.960784,-1.960784,3
0,-2.823529,-2.823529,-0.007843,-0.007843,-0.007843,-1.960784,-1.960784,-1.960784,3
0,-2.823529,-2.823529,-0.007843,-0.007843,-0.007843,-1.960784,-1.960784,-1.960784,3
0,-2.823529,-2.823529,-0.007843,-0.007843,-0.007843,-1.960784,-1.960784,-1.960784,3
0,-2.823529,-2.823529,-0.007843,-0.007843,-0.007843,-1.960784,-1.960784,-1.960784,3
0,-2.823529,-2.823529,-0.007843,-0.007843,-0.007843,-1.960784,-1.960784,-1.960784,3
0,-2.823529,-2.823529,-0.007843,-0.007843,-0.007843,-1.960784,-1.960784,-1.960784,3
0,-2.823529,-2.823529,-0.007843,-0.007843,-0.007843,-1.960784,-1.960784,-1.960784,3
0,-2.823529,-2.823529,-0.007843,-0.007843,-0.007843,-1.960784,-1.960784,-1.960784,3
0,-2.823529,-2.823529,-0.007843,-0.007843,-0.007843,-1.960784,-1.960784,-1.960784,3
0,-2.823529,-2.823529,-0.007843,-0.007843,-0.007843,-1.960784,-1.960784,-1.960784,3
0,-2.823529,-2.823529,-0.007843,-0.007843,-0.007843,-1.960784,-1.960784,-1.960784,3
0,-2.823529,-2.823529,-0.007843,-0.007843,-0.007843,-1.960784,-1.960784,-1.960784,3
0,-2.823529,-2.823529,-0.007843,-0.007843,-0.007843,-1.960784,-1.960784,-1.960784,3
0,-2.823529,-2.823529,-0.007843,-0.007843,-0.007843,-1.960784,-1.960784,-1.960784,3
0,-2.823529,-2.823529,-0.007843,-0.007843,-0.007843,-1.960784,-1.960784,-1.960784,3
0,-2.823529,-2.823529,-0.007843,-0.007843,-0.007843,-1.960784,-1.960784,-1.960784,3
0,-2.823529,-2.823529,-0.007843,-0.007843,-0.007843,-1.960784,-1.960784,-1.960784,3
0,-2.823529,-2.823529,-0.007843,-0.007843,-0.007843,-1.960784,-1.960784,-1.960784,3
0,-2.823529,-2.823529,-0.007843,-0.007843,-0.007843,-1.960784,-1.960784,-1.960784,3
0,-2.823529,-2.823529,-0.007843,0.007843,-0.007843,-1.960784,-1.960784,-1.960784,3
0,-2.823529,-2.823529,-0.007843,-0.007843,-0.007843,-1.960784,-1.960784,-1.960784,3
0,-2.823529,-2.823529,-0.007843,-0.007843,-0.007843,-1.960784,-1.960784,-1.960784,3
0,-2.823529,-2.823529,-0.007843,-0.007843,-0.007843,-1.960784,-1.960784,-1.960784,3
0,-2.823529,-2.823529,-0.007843,-0.007843,0.007843,-1.960784,-1.960784,-1.960784,3
0,-2.823529,-2.823529,-0.007843,-0.007843,-0.007843,-1.960784,-1.960784,-1.960784,3
0,-2.823529,-2.823529,-0.007843,-0.007843,-0.007843,-1.960784,-1.960784,-1.960784,3
0,-2.823529,-2.823529,-0.007843,-0.007843,-0.007843,-1.960784,-1.960784,-1.960784,3
0,-2.823529,-2.823529,-0.007843,-0.007843,-0.007843,-1.960784,-1.960784,-1.960784,3
0,-2.823529,-2.823529,-0.007843,-0.007843,-0.007843,-1.960784,-1.960784,-1.960784,3
0,-2.823529,-2.823529,-0.007843,-0.007843,-0.007843,-1.960784,-1.960784,-1.960784,3
0,-2.823529,-2.823529,-0.007843,-0.007843,-0.007843,-1.960784,-1.960784,-1.960784,3
0,-2.823529,-2.823529,-0.007843,-0.007843,-0.007843,-1.960784,-1.960784,-1.960784,3
0,-2.823529,-2.823529,-0.007843,-0.007843,-0.007843,-1.960784,-1.960784,-1.960784,3
0,-2.823529,-2.823529,-0.007843,-0.007843,-0.007843,-1.960784,-1.960784,-1.960784,3
0,-2.823529,-2.823529,-0.007843,-0.007843,-0.007843,-1.960784,-1.960784,-1.960784,3
0,-2.823529,-2.823529,-0.007843,-0.007843,-0.007843,-1.960784,-1.960784,-1.960784,3
0,-2.823529,-2.823529,-0.007843,-0.007843,-0.007843,-1.960784,-1.960784,-1.960784,3
0,-2.823529,-2.823529,-0.007843,-0.007843,-0.007843,-1.960784,-1.960784,-1.960784,3
0,-2.823529,-2.823529,-0.007843,-0.007843,-0.007843,-1.960784,-1.960784,-1.960784,3
0,-2.823529,-2.823529,-0.007843,-0.007843,-0.007843,-1.960784,-1.960784,-1.960784,3
0,-2.823529,-2.823529,-0.007843,-0.007843,-0.007843,-1.960784,-1.960784,-1.960784,3
0,-2.823529,-2.823529,-0.007843,-0.007843,-0.007843,-1.960784,-1.960784,-1.960784,3
0,-2.823529,-2.823529,-0.007843,-0.007843,-0.007843,-1.960784,-1.960784,-1.960784,3
0,-2.823529,-2.823529,-0.007843,-0.007843,-0.007843,-1.960784,-1.960784,-1.960784,3
0,-2.823529,-2.823529,-0.007843,-0.007843,-0.007843,-1.960784,-1.960784,-1.960784,3
0,-2.823529,-2.823529,-0.007843,-0.007843,-0.007843,-1.960784,-1.960784,-1.960784,3
0,-2.823529,-2.823529,-0.007843,-0.007843,-0.007843,-1.960784,-1.960784,-1.960784,3
0,-2.823529,-2.823529,-0.007843,-0.007843,-0.007843,-1.960784,-1.960784,-1.960784,3
0,-2.823529,-2.823529,-0.007843,-0.007843,0.007843,-1.960784,-1.960784,-1.960784,3
0,-2.823529,-2.823529,-0.007843,-0.007843,-0.007843,-1.960784,-1.960784,-1.960784,3
0,-2.823529,-2.823529,-0.007843,-0.007843,-0.007843,-1.960784,-1.960784,-1.960784,3
0,-2.823529,-2.823529,-0.007843,-0.007843,-0.007843,-1.960784,-1.960784,-1.960784,3
0,-2.823529,-2.823529,-0.007843,-0.007843,-0.007843,-1.960784,-1.960784,-1.960784,3
0,-2.823529,-2.823529,-0.007843,-0.007843,-0.007843,-1.960784,-1.960784,-1.960784,3
0,-2.823529,-2.823529,-0.007843,-0.007843,-0.007843,-1.960784,-1.960784,-1.960784,3
0,-2.823529,-2.823529,-0.007843,-0.007843,0.007843,-1.960784,-1.960784,-1.960784,3
0,-2.823529,-2.823529,-0.007843,-0.007843,-0.007843,-1.960784,-1.960784,-1.960784,3
0,-2.823529,-2.823529,-0.007843,-0.007843,-0.007843,-1.960784,-1.960784,-1.960784,3
0,-2.823529,-2.823529,-0.007843,-0.007843,-0.007843,-1.960784,-1.960784,-1.960784,3
0,-2.823529,-2.823529,-0.007843,-0.007843,-0.007843,-1.960784,-1.960784,-1.960784,3
0,-2.823529,-2.823529,-0.007843,-0.007843,-0.007843,-1.960784,-1.960784,-1.960784,3
0,-2.823529,-2.823529,-0.007843,-0.007843,-0.007843,-1.960784,-1.960784,-1.960784,3
0,-2.823529,-2.823529,-0.007843,-0.007843,-0.007843,-1.960784,-1.960784,-1.960784,3
0,-2.823529,-2.823529,-0.007843,-0.007843,-0.007843,-1.960784,-1.960784,-1.960784,3
0,-2.823529,-2.823529,-0.007843,-0.007843,-0.007843,-1.960784,-1.960784,-1.960784,3
0,-2.823529,-2.823529,-0.007843,-0.007843,0.007843,-1.960784,-1.960784,-1.960784,3
0,-2.823529,-2.823529,-0.007843,-0.007843,0.007843,-1.960784,-1.960784,-1.960784,3
0,-2.823529,-2.823529,-0.007843,-0.007843,-0.007843,-1.960784,-1.960784,-1.960784,3
0,-2.823529,-2.823529,-0.007843,-0.007843,-0.007843,-1.960784,-1.960784,-1.960784,3
0,-2.823529,-2.823529,-0.007843,-0.007843,-0.007843,-1.960784,-1.960784,-1.960784,3
0,-2.823529,-2.823529,-0.007843,-0.007843,-0.007843,-1.960784,-1.960784,-1.960784,3
0,-2.823529,-2.823529,-0.007843,-0.007843,-0.007843,-1.960784,-1.960784,-1.960784,3
0,-2.823529,-2.823529,-0.007843,-0.007843,0.007843,-1.960784,-1.960784,-1.960784,3
0,-2.823529,-2.823529,-0.007843,-0.007843,-0.007843,-1.960784,-1.960784,-1.960784,3
