Minutes,Seconds,Frames,Eulerx,Eulery,Eulerz,Accx,Accy,Accz,Gx,Gy,Gz,label,Activity,Result
2,20,19,0,-2.823529,-81.882353,0.007843,-0.007843,-0.023529,-1.960784,-5.882353,-1.960784,2,2,2
2,20,20,0,0,-81.882353,0.007843,0.007843,-0.039216,-1.960784,1.960784,-1.960784,2,2,2
2,20,21,0,-2.823529,-81.882353,0.007843,0.007843,-0.039216,-1.960784,-5.882353,-1.960784,2,2,2
2,20,22,0,0,-81.882353,-0.007843,-0.007843,0.007843,-1.960784,1.960784,-1.960784,2,2,2
2,20,23,0,0,-80.470588,-0.101961,0.211765,-0.039216,-1.960784,1.960784,5.882353,2,2,2
2,20,24,0,-2.823529,-77.647059,0.290196,-0.023529,0.086275,-1.960784,-1.960784,84.313725,2,2,2
2,20,25,-2.823529,0,-77.647059,-0.054902,-0.258824,0.258824,-25.490196,9.803922,25.490196,2,2,2
2,20,26,-2.823529,-2.823529,-76.235294,-0.023529,0.039216,0.384314,1.960784,-25.490196,33.333333,2,1,2
2,20,27,0,-4.235294,-73.411765,0.007843,0.14902,0.305882,13.72549,-37.254902,60.784314,2,1,2
2,20,28,0,-4.235294,-70.588235,-0.070588,0.258824,0.133333,21.568627,-37.254902,111.764706,2,1,2
2,20,29,1.411765,-5.647059,-64.941176,-0.070588,0.117647,0.023529,33.333333,-41.176471,150.980392,2,1,2
2,21,0,2.823529,-7.058824,-59.294118,-0.086275,0.14902,-0.101961,33.333333,-56.862745,178.431373,2,1,2
2,21,1,4.235294,-8.470588,-53.647059,-0.039216,0.054902,-0.243137,29.411765,-37.254902,182.352941,2,1,2
2,21,2,5.647059,-8.470588,-48,0.023529,-0.007843,-0.290196,33.333333,-17.647059,162.745098,2,1,2
2,21,3,5.647059,-8.470588,-42.352941,0.023529,-0.054902,-0.352941,25.490196,5.882353,154.901961,2,1,2
2,21,4,5.647059,-8.470588,-38.117647,-0.023529,-0.101961,-0.384314,9.803922,-5.882353,139.215686,2,1,2
2,21,5,5.647059,-8.470588,-33.882353,0.054902,-0.086275,-0.321569,1.960784,5.882353,127.45098,2,1,2
2,21,6,5.647059,-7.058824,-31.058824,-0.070588,-0.211765,-0.227451,-9.803922,9.803922,72.54902,2,1,2
2,21,7,4.235294,-7.058824,-29.647059,0.054902,-0.039216,-0.101961,-9.803922,29.411765,37.254902,2,1,2
2,21,8,4.235294,-5.647059,-28.235294,0.039216,-0.039216,0.007843,-1.960784,17.647059,37.254902,2,1,2
2,21,9,4.235294,-5.647059,-26.823529,0.023529,-0.054902,0.039216,-1.960784,17.647059,33.333333,2,1,2
2,21,10,4.235294,-4.235294,-26.823529,0.039216,-0.023529,0.054902,-9.803922,17.647059,33.333333,2,1,2
2,21,11,2.823529,-4.235294,-24,0.039216,-0.007843,0.086275,-13.72549,13.72549,45.098039,2,1,2
2,21,12,2.823529,-4.235294,-24,0.007843,-0.101961,0.054902,-9.803922,13.72549,29.411765,2,1,2
2,21,13,2.823529,-2.823529,-22.588235,0.023529,0.007843,0.054902,-5.882353,13.72549,21.568627,2,1,2
2,21,14,2.823529,-2.823529,-21.176471,-0.023529,-0.070588,0.023529,-9.803922,9.803922,37.254902,2,1,2
2,21,15,1.411765,-2.823529,-21.176471,-0.039216,-0.101961,-0.007843,-5.882353,9.803922,13.72549,2,1,2
2,21,16,5.647059,-2.823529,-22.588235,-0.94902,-0.541176,0.964706,111.764706,-56.862745,-33.333333,2,1,2
2,21,17,7.058824,-4.235294,-22.588235,0.996078,-0.039216,-1.090196,-41.176471,-21.568627,-1.960784,2,1,2
2,21,18,7.058824,-4.235294,-22.588235,0.023529,0.023529,-0.023529,-5.882353,1.960784,1.960784,2,1,2
2,21,19,7.058824,-4.235294,-22.588235,-0.007843,-0.039216,-0.007843,5.882353,-1.960784,-1.960784,2,1,2
2,21,20,7.058824,-4.235294,-21.176471,0.023529,0.007843,-0.023529,-1.960784,-1.960784,1.960784,2,1,2
2,21,21,7.058824,-4.235294,-21.176471,-0.023529,0.039216,0.023529,-5.882353,-1.960784,-1.960784,2,1,2
2,21,22,7.058824,-4.235294,-22.588235,0.007843,0.007843,-0.023529,-1.960784,-1.960784,-1.960784,2,1,2
2,21,23,7.058824,-4.235294,-22.588235,-0.007843,-0.007843,-0.007843,-1.960784,-1.960784,-1.960784,2,1,2
2,21,24,7.058824,-4.235294,-22.588235,-0.007843,-0.007843,-0.007843,-1.960784,-1.960784,-1.960784,2,1,2
2,21,25,7.058824,-4.235294,-22.588235,-0.007843,-0.007843,-0.007843,-1.960784,-1.960784,-1.960784,2,1,2
2,21,26,5.647059,-4.235294,-22.588235,-0.007843,0.007843,-0.007843,-1.960784,-1.960784,-1.960784,2,1,2
2,21,27,5.647059,-4.235294,-22.588235,-0.007843,-0.023529,-0.023529,-1.960784,-1.960784,-1.960784,2,1,2
2,21,28,5.647059,-4.235294,-21.176471,0.117647,0.196078,0.007843,-1.960784,-1.960784,9.803922,2,1,2
2,21,29,7.058824,-4.235294,-19.764706,-0.007843,0.14902,0.007843,5.882353,-1.960784,56.862745,2,1,2
2,21,30,8.470588,-2.823529,-15.529412,0.039216,-0.086275,0.117647,64.705882,17.647059,100,2,1,2
2,22,0,11.294118,0,-15.529412,-0.070588,-0.054902,0.431373,96.078431,41.176471,13.72549,2,1,2
2,22,1,12.705882,-2.823529,-15.529412,0.007843,0.27451,0.431373,49.019608,-5.882353,9.803922,2,1,2
2,22,2,12.705882,-4.235294,-12.705882,0.039216,0.415686,0.243137,-29.411765,-49.019608,80.392157,2,1,2
2,22,3,11.294118,-5.647059,-9.882353,0.039216,0.117647,0.14902,-33.333333,-49.019608,72.54902,2,1,2
2,22,4,11.294118,-7.058824,-8.470588,0.039216,0.14902,0.007843,-5.882353,-52.941176,52.941176,2,1,2
2,22,5,11.294118,-8.470588,-5.647059,0.007843,0.180392,-0.14902,-9.803922,-56.862745,76.470588,2,1,2
2,22,6,9.882353,-9.882353,-2.823529,-0.007843,0.086275,-0.321569,-25.490196,-45.098039,88.235294,2,1,2
2,22,7,8.470588,-9.882353,1.411765,-0.007843,-0.054902,-0.4,-29.411765,-17.647059,64.705882,2,1,2
2,22,8,7.058824,-9.882353,2.823529,0.039216,0.039216,-0.431373,-29.411765,1.960784,49.019608,2,1,2
2,22,9,5.647059,-9.882353,4.235294,-0.007843,-0.023529,-0.478431,-41.176471,5.882353,49.019608,2,1,2
2,22,10,5.647059,-8.470588,5.647059,-0.039216,-0.007843,-0.572549,-21.568627,25.490196,45.098039,2,1,2
2,22,11,5.647059,-7.058824,8.470588,0.007843,0.007843,-0.337255,-9.803922,45.098039,56.862745,2,1,2
2,22,12,5.647059,-5.647059,9.882353,0.039216,-0.101961,-0.196078,5.882353,49.019608,52.941176,2,1,2
2,22,13,5.647059,-4.235294,11.294118,-0.023529,-0.039216,-0.007843,17.647059,29.411765,49.019608,2,1,1
2,22,14,5.647059,-4.235294,12.705882,-0.070588,-0.070588,0.023529,9.803922,13.72549,52.941176,2,1,1
2,22,15,5.647059,-2.823529,14.117647,0.007843,-0.117647,0.133333,17.647059,29.411765,21.568627,2,1,1
2,22,16,5.647059,-2.823529,15.529412,-0.039216,-0.007843,0.290196,-9.803922,1.960784,33.333333,2,1,1
2,22,17,4.235294,-2.823529,16.941176,-0.039216,-0.054902,0.196078,-25.490196,-17.647059,41.176471,2,1,1
2,22,18,4.235294,-4.235294,18.352941,-0.039216,-0.117647,0.133333,-17.647059,-21.568627,29.411765,2,1,1
2,22,19,2.823529,-4.235294,18.352941,-0.023529,-0.070588,0.054902,-25.490196,-21.568627,21.568627,2,1,1
2,22,20,2.823529,-4.235294,19.764706,-0.023529,-0.070588,-0.007843,-25.490196,-5.882353,21.568627,2,1,1
2,22,21,1.411765,-4.235294,19.764706,-0.039216,-0.117647,-0.007843,-17.647059,1.960784,17.647059,2,1,1
2,22,22,2.823529,-2.823529,18.352941,0.352941,-0.164706,0.258824,60.784314,60.784314,-45.098039,2,1,1
2,22,23,4.235294,-2.823529,18.352941,-0.086275,-0.117647,-0.070588,33.333333,-9.803922,1.960784,2,1,1
2,22,24,5.647059,-2.823529,18.352941,0.27451,-0.117647,-0.556863,52.941176,1.960784,-13.72549,2,1,1
2,22,25,5.647059,-2.823529,18.352941,0.14902,0.086275,-0.039216,-1.960784,1.960784,1.960784,2,1,1
2,22,26,5.647059,-2.823529,18.352941,0.023529,-0.023529,-0.007843,-1.960784,-1.960784,9.803922,2,1,1
2,22,27,5.647059,-2.823529,18.352941,-0.054902,0.039216,-0.007843,-1.960784,-1.960784,5.882353,2,1,1
2,22,28,5.647059,-2.823529,18.352941,0.007843,0.039216,0.007843,-5.882353,-1.960784,-9.803922,2,1,1
2,22,29,7.058824,-2.823529,19.764706,0.117647,0.054902,0.447059,60.784314,9.803922,17.647059,2,1,1
2,23,0,7.058824,-4.235294,19.764706,0.14902,0.007843,0.807843,17.647059,-49.019608,29.411765,2,1,1
2,23,1,7.058824,-7.058824,21.176471,0.164706,0.070588,0.509804,-37.254902,-68.627451,33.333333,2,1,1
2,23,2,5.647059,-8.470588,22.588235,0.196078,0.180392,0.321569,-45.098039,-60.784314,37.254902,2,1,1
2,23,3,4.235294,-11.294118,24,0.14902,0.133333,-0.007843,-17.647059,-80.392157,41.176471,2,1,1
2,23,4,4.235294,-12.705882,25.411765,0.070588,0.086275,-0.384314,-1.960784,-64.705882,41.176471,2,1,1
2,23,5,4.235294,-14.117647,26.823529,0.070588,0.007843,-0.52549,-29.411765,-29.411765,52.941176,2,1,1
2,23,6,2.823529,-14.117647,29.647059,0.007843,-0.086275,-0.588235,-33.333333,-9.803922,52.941176,2,1,1
2,23,7,1.411765,-12.705882,31.058824,-0.023529,-0.070588,-0.635294,-9.803922,13.72549,33.333333,2,1,1
2,23,8,1.411765,-11.294118,32.470588,-0.007843,-0.086275,-0.509804,-21.568627,33.333333,41.176471,2,1,1
2,23,9,1.411765,-9.882353,32.470588,-0.070588,-0.117647,-0.431373,1.960784,33.333333,33.333333,2,1,1
2,23,10,1.411765,-8.470588,33.882353,-0.023529,-0.101961,-0.321569,17.647059,41.176471,17.647059,2,1,1
2,23,11,1.411765,-7.058824,33.882353,0.007843,-0.14902,-0.164706,9.803922,29.411765,21.568627,2,1,1
2,23,12,2.823529,-7.058824,35.294118,-0.054902,-0.117647,-0.164706,29.411765,21.568627,9.803922,2,1,1
2,23,13,2.823529,-5.647059,35.294118,0.007843,-0.086275,0.007843,29.411765,37.254902,5.882353,2,1,1
2,23,14,4.235294,-4.235294,35.294118,-0.023529,-0.133333,0.14902,29.411765,25.490196,-1.960784,2,1,1
2,23,15,5.647059,-4.235294,35.294118,-0.023529,-0.054902,0.180392,29.411765,21.568627,-5.882353,2,0,1
2,23,16,5.647059,-2.823529,35.294118,0.039216,-0.054902,0.258824,25.490196,13.72549,-9.803922,2,0,1
2,23,17,5.647059,-2.823529,35.294118,-0.023529,0.023529,0.14902,17.647059,1.960784,-9.803922,2,0,1
2,23,18,7.058824,-2.823529,33.882353,-0.007843,0.007843,0.086275,9.803922,13.72549,-5.882353,2,0,1
2,23,19,5.647059,0,33.882353,-0.039216,0.007843,0.023529,-5.882353,17.647059,-1.960784,2,0,1
2,23,20,5.647059,0,35.294118,-0.023529,0.070588,0.007843,-1.960784,25.490196,1.960784,2,0,1
2,23,21,4.235294,1.411765,33.882353,0.666667,-0.4,0.964706,-52.941176,56.862745,-29.411765,2,0,1
2,23,22,4.235294,2.823529,33.882353,-0.572549,0.023529,0.964706,-1.960784,33.333333,1.960784,2,0,1
2,23,23,4.235294,2.823529,33.882353,-0.023529,-0.023529,-0.039216,-1.960784,-1.960784,-1.960784,2,0,1
2,23,24,4.235294,2.823529,33.882353,-0.023529,-0.007843,-0.007843,-1.960784,-1.960784,-1.960784,2,0,1
2,23,25,4.235294,2.823529,33.882353,-0.023529,-0.007843,-0.007843,-1.960784,-1.960784,-1.960784,2,0,1
2,23,26,4.235294,2.823529,33.882353,-0.007843,-0.007843,-0.023529,-1.960784,-1.960784,-1.960784,2,0,1
2,23,27,4.235294,2.823529,33.882353,-0.023529,0.023529,0.070588,-1.960784,-1.960784,13.72549,2,0,1
2,23,28,4.235294,2.823529,33.882353,0.180392,-0.070588,0.603922,17.647059,-5.882353,1.960784,2,0,1
2,23,29,4.235294,0,33.882353,0.164706,-0.039216,0.666667,5.882353,-60.784314,-1.960784,2,0,1
2,24,0,2.823529,-2.823529,35.294118,0.133333,0.054902,0.290196,-29.411765,-72.54902,5.882353,2,0,1
2,24,1,1.411765,-5.647059,35.294118,0.133333,0.086275,0.054902,-37.254902,-52.941176,13.72549,2,1,1
2,24,2,1.411765,-7.058824,36.705882,0.14902,0.054902,-0.14902,-41.176471,-45.098039,25.490196,2,1,1
2,24,3,0,-7.058824,36.705882,0.101961,-0.007843,-0.352941,-45.098039,-29.411765,33.333333,2,1,1
2,24,4,-2.823529,-8.470588,38.117647,0.054902,-0.023529,-0.494118,-29.411765,-9.803922,29.411765,2,1,1
2,24,5,-4.235294,-7.058824,39.529412,0.039216,-0.039216,-0.541176,-25.490196,9.803922,25.490196,2,1,1
2,24,6,-4.235294,-7.058824,40.941176,0.023529,-0.039216,-0.52549,-17.647059,17.647059,33.333333,2,1,1
2,24,7,-4.235294,-5.647059,40.941176,0.007843,-0.054902,-0.478431,5.882353,21.568627,29.411765,2,1,1
2,24,8,-4.235294,-4.235294,42.352941,-0.007843,-0.039216,-0.352941,9.803922,29.411765,29.411765,2,1,1
2,24,9,-2.823529,-4.235294,43.764706,-0.039216,-0.133333,-0.164706,9.803922,25.490196,29.411765,2,1,1
2,24,10,-2.823529,-2.823529,43.764706,-0.054902,-0.180392,-0.101961,21.568627,25.490196,17.647059,2,1,1
2,24,11,0,0,43.764706,-0.039216,-0.133333,-0.039216,25.490196,33.333333,9.803922,2,1,1
2,24,12,0,1.411765,45.176471,-0.023529,-0.164706,0.117647,13.72549,33.333333,9.803922,2,1,1
2,24,13,0,1.411765,45.176471,-0.023529,-0.101961,0.164706,25.490196,17.647059,-1.960784,2,1,1
2,24,14,1.411765,1.411765,45.176471,-0.039216,-0.054902,0.164706,21.568627,13.72549,-1.960784,2,1,1
2,24,15,1.411765,2.823529,45.176471,-0.039216,-0.039216,0.133333,21.568627,1.960784,-1.960784,2,1,1
2,24,16,2.823529,2.823529,45.176471,-0.054902,0.007843,0.101961,13.72549,1.960784,1.960784,2,1,1
2,24,17,2.823529,2.823529,45.176471,-0.054902,-0.054902,0.070588,9.803922,1.960784,1.960784,2,1,1
2,24,18,4.235294,7.058824,42.352941,1.87451,-1.968627,0.964706,64.705882,154.901961,-76.470588,2,1,1
2,24,19,4.235294,7.058824,42.352941,-0.133333,0.054902,0.227451,-5.882353,21.568627,-17.647059,2,1,1
2,24,20,2.823529,7.058824,42.352941,0.054902,-0.054902,-0.054902,-1.960784,-21.568627,-1.960784,2,1,1
2,24,21,2.823529,7.058824,42.352941,0.007843,0.007843,-0.023529,-5.882353,1.960784,-1.960784,2,1,1
2,24,22,2.823529,7.058824,42.352941,0.007843,-0.007843,-0.007843,-1.960784,1.960784,-1.960784,2,1,1
2,24,23,2.823529,5.647059,42.352941,-0.039216,0.007843,0.054902,-1.960784,-13.72549,-1.960784,2,1,1
2,24,24,2.823529,5.647059,42.352941,-0.054902,-0.086275,-0.086275,-5.882353,-13.72549,-5.882353,2,1,1
2,24,25,2.823529,5.647059,42.352941,0.007843,-0.054902,0.478431,-9.803922,-1.960784,-1.960784,2,1,1
2,24,26,2.823529,4.235294,40.941176,0.070588,-0.007843,0.603922,17.647059,-49.019608,-21.568627,2,1,1
2,24,27,2.823529,1.411765,40.941176,0.086275,0.086275,0.352941,-9.803922,-49.019608,-1.960784,2,1,1
2,24,28,1.411765,1.411765,42.352941,0.133333,0.054902,0.180392,-33.333333,-33.333333,13.72549,2,1,1
2,24,29,0,0,42.352941,0.14902,0.039216,0.023529,-41.176471,-25.490196,21.568627,2,1,1
2,25,0,-2.823529,-2.823529,43.764706,0.164706,-0.039216,-0.070588,-52.941176,-13.72549,33.333333,2,1,1
2,25,1,-4.235294,-2.823529,45.176471,0.117647,-0.054902,-0.227451,-45.098039,-13.72549,29.411765,2,1,1
2,25,2,-5.647059,-2.823529,46.588235,0.117647,-0.007843,-0.305882,-33.333333,-9.803922,33.333333,2,1,1
2,25,3,-5.647059,-4.235294,48,0.101961,-0.070588,-0.368627,-21.568627,-13.72549,37.254902,2,1,1
2,25,4,-5.647059,-4.235294,48,-0.007843,-0.101961,-0.509804,-1.960784,-17.647059,29.411765,2,1,1
2,25,5,-5.647059,-4.235294,49.411765,-0.023529,-0.133333,-0.65098,21.568627,1.960784,13.72549,2,1,1
2,25,6,-5.647059,-2.823529,49.411765,-0.070588,-0.086275,-0.556863,1.960784,21.568627,17.647059,2,1,1
2,25,7,-5.647059,0,50.823529,-0.086275,-0.054902,-0.447059,13.72549,25.490196,17.647059,2,1,1
2,25,8,-4.235294,0,50.823529,-0.023529,-0.117647,-0.196078,29.411765,29.411765,1.960784,2,1,1
2,25,9,-2.823529,1.411765,50.823529,-0.101961,-0.117647,-0.117647,25.490196,13.72549,1.960784,2,1,1
2,25,10,-2.823529,2.823529,50.823529,-0.070588,-0.086275,-0.039216,33.333333,33.333333,-9.803922,2,1,1
2,25,11,0,2.823529,49.411765,0.039216,-0.14902,0.243137,9.803922,21.568627,-9.803922,2,1,1
2,25,12,0,2.823529,49.411765,-0.007843,-0.023529,0.196078,25.490196,-5.882353,-17.647059,2,1,1
2,25,13,1.411765,2.823529,49.411765,0.023529,0.007843,0.14902,45.098039,5.882353,-13.72549,2,1,1
2,25,14,2.823529,2.823529,49.411765,0.007843,-0.023529,0.180392,29.411765,5.882353,-9.803922,2,1,1
2,25,15,2.823529,2.823529,49.411765,0.054902,0.007843,0.180392,5.882353,9.803922,1.960784,2,1,1
2,25,16,4.235294,2.823529,49.411765,0.023529,0.039216,0.101961,21.568627,-1.960784,-5.882353,2,1,1
2,25,17,4.235294,2.823529,49.411765,0.290196,-0.290196,-0.039216,13.72549,1.960784,-1.960784,2,1,1
2,25,18,4.235294,2.823529,49.411765,-0.180392,-0.086275,0.196078,-1.960784,-5.882353,-5.882353,2,1,1
2,25,19,2.823529,2.823529,49.411765,0.007843,-0.023529,0.023529,-5.882353,5.882353,-1.960784,2,1,1
2,25,20,2.823529,2.823529,48,-0.039216,0.039216,0.007843,-1.960784,1.960784,-5.882353,2,1,1
2,25,21,2.823529,2.823529,48,-0.007843,-0.007843,0.007843,-9.803922,-1.960784,-1.960784,2,1,1
2,25,22,1.411765,2.823529,49.411765,-0.023529,-0.196078,0.4,-37.254902,-5.882353,29.411765,2,1,1
2,25,23,1.411765,2.823529,49.411765,0.054902,-0.243137,0.635294,-9.803922,13.72549,-25.490196,2,1,1
2,25,24,0,2.823529,49.411765,0.086275,-0.023529,0.635294,-41.176471,-25.490196,-5.882353,2,1,1
2,25,25,-4.235294,1.411765,49.411765,0.101961,-0.070588,0.384314,-60.784314,-33.333333,-1.960784,2,1,1
2,25,26,-5.647059,0,49.411765,0.070588,0.039216,0.054902,-60.784314,-49.019608,-1.960784,2,1,1
2,25,27,-7.058824,-2.823529,49.411765,0.039216,0.039216,-0.305882,-41.176471,-41.176471,-1.960784,2,1,1
2,25,28,-7.058824,-4.235294,49.411765,0.023529,0.039216,-0.509804,-37.254902,-17.647059,5.882353,2,1,1
2,25,29,-8.470588,-4.235294,49.411765,0.039216,-0.023529,-0.541176,-45.098039,-1.960784,21.568627,2,1,1
2,25,30,-9.882353,-4.235294,50.823529,0.007843,-0.070588,-0.572549,-21.568627,-5.882353,21.568627,2,1,1
2,26,0,-9.882353,-4.235294,50.823529,-0.007843,-0.101961,-0.588235,5.882353,-5.882353,9.803922,2,1,1
2,26,1,-9.882353,-4.235294,52.235294,-0.023529,-0.086275,-0.52549,5.882353,-1.960784,17.647059,2,1,1
2,26,2,-8.470588,-2.823529,52.235294,-0.070588,-0.117647,-0.447059,29.411765,5.882353,5.882353,2,1,1
2,26,3,-7.058824,-2.823529,52.235294,0.007843,-0.164706,-0.227451,21.568627,25.490196,5.882353,2,1,1
2,26,4,-7.058824,-2.823529,52.235294,0.023529,-0.14902,-0.054902,13.72549,13.72549,9.803922,2,0,1
2,26,5,-5.647059,0,52.235294,-0.023529,-0.14902,-0.007843,37.254902,9.803922,1.960784,2,0,1
2,26,6,-4.235294,0,52.235294,0.007843,-0.164706,0.117647,49.019608,17.647059,-9.803922,2,0,1
2,26,7,-4.235294,0,52.235294,-0.007843,-0.117647,0.196078,21.568627,9.803922,1.960784,2,0,1
2,26,8,-2.823529,1.411765,52.235294,0.007843,-0.180392,0.258824,29.411765,5.882353,-1.960784,2,0,1
2,26,9,0,0,52.235294,-0.007843,-0.117647,0.196078,33.333333,-5.882353,-9.803922,2,0,1
2,26,10,0,0,52.235294,-0.007843,-0.101961,0.086275,13.72549,1.960784,-5.882353,2,0,1
2,26,11,0,1.411765,52.235294,0.023529,-0.070588,0.023529,9.803922,5.882353,-9.803922,2,0,1
2,26,12,0,1.411765,52.235294,-0.023529,0.007843,-0.054902,5.882353,13.72549,-1.960784,2,0,1
2,26,13,0,1.411765,52.235294,-0.007843,-0.070588,-0.007843,1.960784,17.647059,1.960784,2,0,1
2,26,14,1.411765,2.823529,52.235294,-0.039216,-0.054902,0.007843,5.882353,13.72549,-1.960784,2,0,1
2,26,15,1.411765,7.058824,50.823529,-0.117647,0.070588,-0.870588,-13.72549,100,-33.333333,2,0,1
2,26,16,1.411765,5.647059,50.823529,-0.023529,-0.070588,0.054902,-1.960784,-1.960784,-9.803922,2,0,1
2,26,17,1.411765,5.647059,50.823529,0.007843,0.117647,-0.007843,-1.960784,-1.960784,-1.960784,2,0,1
2,26,18,1.411765,5.647059,50.823529,-0.086275,-0.023529,0.007843,-1.960784,-1.960784,1.960784,2,0,1
2,26,19,1.411765,5.647059,50.823529,-0.007843,-0.007843,-0.007843,-5.882353,-1.960784,-1.960784,2,0,1
2,26,20,0,5.647059,50.823529,0.039216,-0.039216,0.101961,-9.803922,5.882353,5.882353,2,1,1
2,26,21,0,5.647059,50.823529,0.070588,-0.039216,0.321569,-1.960784,-5.882353,-5.882353,2,1,1
2,26,22,0,4.235294,50.823529,0.101961,-0.039216,0.27451,-1.960784,-21.568627,-1.960784,2,1,1
2,26,23,0,4.235294,50.823529,0.054902,-0.023529,0.164706,-13.72549,-25.490196,5.882353,2,1,1
2,26,24,-2.823529,2.823529,52.235294,0.054902,-0.023529,0.039216,-33.333333,-21.568627,9.803922,2,1,1
2,26,25,-2.823529,2.823529,52.235294,0.039216,0.039216,-0.086275,-33.333333,-17.647059,9.803922,2,1,1
2,26,26,-4.235294,1.411765,52.235294,0.039216,0.007843,-0.14902,-25.490196,-17.647059,13.72549,2,1,1
2,26,27,-4.235294,1.411765,53.647059,-0.007843,-0.007843,-0.27451,-9.803922,-17.647059,9.803922,2,1,1
2,26,28,-4.235294,1.411765,53.647059,-0.039216,0.007843,-0.337255,-1.960784,-5.882353,9.803922,2,1,1
2,26,29,-4.235294,1.411765,53.647059,-0.007843,-0.039216,-0.290196,-1.960784,-1.960784,17.647059,2,1,1
2,27,0,-4.235294,1.411765,55.058824,-0.023529,-0.039216,-0.290196,9.803922,-1.960784,5.882353,2,1,1
2,27,1,-2.823529,1.411765,55.058824,-0.039216,-0.054902,-0.243137,17.647059,5.882353,5.882353,2,1,1
2,27,2,-2.823529,1.411765,55.058824,-0.023529,-0.054902,-0.117647,9.803922,17.647059,9.803922,2,1,1
2,27,3,-2.823529,2.823529,55.058824,-0.023529,-0.133333,0.023529,5.882353,13.72549,5.882353,2,1,1
2,27,4,-2.823529,2.823529,55.058824,-0.007843,-0.039216,0.070588,21.568627,9.803922,-5.882353,2,1,1
2,27,5,0,2.823529,55.058824,0.007843,-0.039216,0.086275,21.568627,9.803922,-5.882353,2,1,1
2,27,6,0,2.823529,55.058824,-0.007843,-0.023529,0.039216,17.647059,5.882353,-5.882353,2,1,1
2,27,7,1.411765,4.235294,55.058824,0.007843,0.039216,0.070588,9.803922,9.803922,-1.960784,2,1,1
2,27,8,1.411765,4.235294,55.058824,0.007843,0.023529,0.054902,17.647059,1.960784,-5.882353,2,1,1
2,27,9,1.411765,4.235294,55.058824,-0.007843,0.007843,0.023529,9.803922,5.882353,1.960784,2,1,1
2,27,10,2.823529,4.235294,55.058824,-0.007843,-0.007843,0.023529,5.882353,1.960784,-1.960784,2,1,1
2,27,11,0,4.235294,55.058824,0.588235,0.007843,0.964706,-80.392157,37.254902,-9.803922,2,1,1
2,27,12,0,4.235294,53.647059,-0.211765,-0.039216,-0.007843,9.803922,-13.72549,-21.568627,2,1,1
2,27,13,0,4.235294,53.647059,0.023529,0.086275,-0.101961,1.960784,1.960784,-1.960784,2,1,1
2,27,14,0,4.235294,53.647059,0.007843,0.007843,-0.023529,-9.803922,1.960784,-1.960784,2,1,1
2,27,15,0,5.647059,53.647059,-0.007843,0.070588,-0.054902,-21.568627,13.72549,1.960784,2,1,1
2,27,16,-2.823529,4.235294,55.058824,-0.070588,-0.023529,0.039216,-33.333333,-13.72549,13.72549,2,1,1
2,27,17,-2.823529,4.235294,55.058824,0.023529,0.007843,-0.007843,-5.882353,1.960784,-1.960784,2,1,1
2,27,18,-4.235294,5.647059,55.058824,0.054902,-0.164706,0.14902,-21.568627,25.490196,5.882353,2,1,1
2,27,19,-4.235294,5.647059,55.058824,0.086275,-0.070588,0.352941,-17.647059,-5.882353,-5.882353,2,1,1
2,27,20,-4.235294,4.235294,55.058824,0.054902,0.007843,0.133333,-13.72549,-21.568627,-1.960784,2,1,1
2,27,21,-5.647059,4.235294,55.058824,0.023529,-0.007843,0.023529,-17.647059,-17.647059,5.882353,2,1,1
2,27,22,-5.647059,2.823529,55.058824,0.039216,-0.007843,-0.101961,-21.568627,-13.72549,9.803922,2,1,1
2,27,23,-5.647059,2.823529,56.470588,0.007843,0.007843,-0.196078,-21.568627,-9.803922,13.72549,2,1,1
2,27,24,-5.647059,2.823529,56.470588,-0.039216,-0.007843,-0.258824,-9.803922,-1.960784,13.72549,2,1,1
2,27,25,-7.058824,2.823529,57.882353,-0.023529,-0.007843,-0.227451,-5.882353,5.882353,17.647059,2,1,1
2,27,26,-5.647059,2.823529,57.882353,-0.039216,-0.054902,-0.196078,-1.960784,1.960784,17.647059,2,1,1
2,27,27,-5.647059,2.823529,57.882353,-0.070588,-0.054902,-0.180392,9.803922,5.882353,9.803922,2,1,1
2,27,28,-5.647059,4.235294,59.294118,-0.086275,-0.039216,-0.117647,5.882353,13.72549,9.803922,2,1,1
2,27,29,-5.647059,4.235294,59.294118,-0.086275,-0.101961,-0.039216,-1.960784,13.72549,13.72549,2,1,1
2,28,0,-5.647059,4.235294,59.294118,-0.086275,-0.070588,0.007843,13.72549,17.647059,5.882353,2,1,1
2,28,1,-4.235294,5.647059,59.294118,-0.070588,-0.101961,0.054902,9.803922,9.803922,1.960784,2,1,1
2,28,2,-4.235294,5.647059,59.294118,-0.086275,-0.054902,0.023529,9.803922,5.882353,-1.960784,2,1,1
2,28,3,-4.235294,5.647059,59.294118,-0.070588,-0.039216,0.023529,9.803922,5.882353,-1.960784,2,1,1
2,28,4,-4.235294,5.647059,59.294118,-0.070588,-0.039216,0.023529,9.803922,5.882353,1.960784,2,1,1
2,28,5,-2.823529,0,60.705882,-1.576471,0.258824,0.964706,13.72549,-213.72549,17.647059,2,1,1
2,28,6,-2.823529,-2.823529,60.705882,0.007843,-0.039216,-0.070588,13.72549,-25.490196,-5.882353,2,1,1
2,28,7,-2.823529,-2.823529,60.705882,0.101961,0.117647,0.180392,-5.882353,9.803922,-5.882353,2,1,1
2,28,8,-2.823529,-2.823529,60.705882,-0.243137,0.023529,0.321569,-5.882353,-5.882353,-1.960784,2,1,1
2,28,9,-2.823529,-2.823529,60.705882,-0.007843,-0.023529,-0.007843,-1.960784,-5.882353,-1.960784,2,1,1
2,28,10,-2.823529,-2.823529,59.294118,-0.023529,0.007843,-0.007843,-1.960784,-1.960784,-9.803922,2,1,1
2,28,11,-2.823529,-2.823529,59.294118,-0.023529,-0.007843,-0.007843,-1.960784,-1.960784,-1.960784,2,1,1
2,28,12,-2.823529,0,59.294118,-0.133333,0.023529,-0.007843,-9.803922,1.960784,-5.882353,2,1,1
2,28,13,-2.823529,1.411765,59.294118,0.007843,-0.180392,0.321569,-17.647059,45.098039,1.960784,2,1,1
2,28,14,-4.235294,1.411765,59.294118,0.070588,-0.164706,0.619608,-9.803922,-5.882353,-17.647059,2,1,1
2,28,15,-4.235294,0,59.294118,0.054902,-0.086275,0.321569,-25.490196,-45.098039,-9.803922,2,1,1
2,28,16,-5.647059,-2.823529,59.294118,0.039216,-0.054902,0.086275,-33.333333,-37.254902,-9.803922,2,1,1
2,28,17,-7.058824,-4.235294,59.294118,0.070588,-0.039216,-0.101961,-52.941176,-21.568627,-5.882353,2,1,1
2,28,18,-8.470588,-4.235294,59.294118,0.086275,-0.007843,-0.164706,-56.862745,-17.647059,1.960784,2,1,1
2,28,19,-9.882353,-5.647059,59.294118,0.054902,0.007843,-0.337255,-29.411765,-21.568627,1.960784,2,1,1
2,28,20,-9.882353,-5.647059,59.294118,0.023529,0.007843,-0.447059,-13.72549,-9.803922,1.960784,2,1,1
2,28,21,-9.882353,-5.647059,59.294118,-0.007843,-0.023529,-0.462745,-9.803922,-1.960784,13.72549,2,1,1
2,28,22,-9.882353,-5.647059,60.705882,-0.039216,-0.039216,-0.415686,1.960784,1.960784,9.803922,2,1,1
2,28,23,-8.470588,-4.235294,60.705882,-0.054902,-0.023529,-0.321569,9.803922,5.882353,9.803922,2,1,1
2,28,24,-8.470588,-4.235294,60.705882,-0.101961,-0.039216,-0.227451,5.882353,21.568627,13.72549,2,1,1
2,28,25,-8.470588,-2.823529,62.117647,-0.086275,-0.086275,-0.023529,5.882353,33.333333,17.647059,2,1,1
2,28,26,-8.470588,0,62.117647,-0.039216,-0.164706,0.164706,9.803922,21.568627,13.72549,2,1,1
2,28,27,-7.058824,0,62.117647,-0.070588,-0.164706,0.117647,33.333333,1.960784,-1.960784,2,1,1
2,28,28,-5.647059,0,62.117647,-0.070588,-0.117647,0.039216,29.411765,5.882353,-1.960784,2,1,1
2,28,29,-5.647059,0,62.117647,-0.054902,-0.133333,0.070588,13.72549,5.882353,-1.960784,2,1,1
2,28,30,-5.647059,0,62.117647,-0.054902,-0.054902,0.070588,17.647059,5.882353,-1.960784,2,1,1
2,29,0,-4.235294,1.411765,62.117647,-0.039216,-0.101961,0.054902,17.647059,1.960784,-5.882353,2,1,1
2,29,1,-4.235294,1.411765,62.117647,-0.054902,-0.070588,0.023529,13.72549,5.882353,-5.882353,2,1,1
2,29,2,-4.235294,1.411765,62.117647,-0.039216,-0.070588,0.023529,9.803922,5.882353,-1.960784,2,1,1
2,29,3,-2.823529,1.411765,62.117647,-0.039216,-0.039216,-0.007843,9.803922,1.960784,-5.882353,2,1,1
2,29,4,-2.823529,1.411765,62.117647,-0.023529,-0.023529,-0.023529,9.803922,1.960784,-1.960784,2,1,1
2,29,5,0,-2.823529,62.117647,-0.776471,0.352941,0.619608,21.568627,-107.843137,-1.960784,2,1,1
2,29,6,0,0,62.117647,0.133333,0.164706,0.054902,-5.882353,49.019608,-9.803922,2,1,1
2,29,7,0,-2.823529,62.117647,-0.023529,-0.023529,-0.023529,1.960784,-25.490196,-1.960784,2,1,1
2,29,8,0,0,62.117647,-0.039216,-0.007843,-0.023529,-1.960784,1.960784,-1.960784,2,1,1
2,29,9,0,0,62.117647,-0.023529,-0.007843,0.007843,-1.960784,5.882353,-1.960784,2,1,1
2,29,10,0,-2.823529,62.117647,-0.007843,-0.007843,-0.007843,-1.960784,-9.803922,-1.960784,2,1,1
2,29,11,0,-2.823529,62.117647,0.023529,0.023529,-0.086275,-1.960784,-1.960784,-1.960784,2,1,1
2,29,12,0,-2.823529,62.117647,-0.101961,-0.054902,0.007843,-1.960784,-5.882353,5.882353,2,1,1
2,29,13,-2.823529,0,62.117647,-0.023529,-0.086275,0.117647,-5.882353,17.647059,-5.882353,2,1,1
2,29,14,-2.823529,0,62.117647,-0.007843,-0.117647,0.305882,-21.568627,9.803922,-1.960784,2,1,1
2,29,15,-2.823529,0,60.705882,-0.023529,-0.14902,0.227451,-17.647059,-13.72549,-17.647059,2,1,1
2,29,16,-4.235294,0,60.705882,-0.007843,-0.086275,0.133333,-25.490196,-9.803922,-17.647059,2,1,1
2,29,17,-5.647059,-2.823529,60.705882,-0.007843,-0.133333,0.101961,-37.254902,-13.72549,-21.568627,2,1,1
2,29,18,-7.058824,-2.823529,59.294118,0.007843,-0.086275,-0.007843,-37.254902,-17.647059,-21.568627,2,1,1
2,29,19,-7.058824,-2.823529,59.294118,0.007843,-0.101961,-0.101961,-29.411765,-21.568627,-21.568627,2,1,1
2,29,20,-8.470588,-4.235294,57.882353,0.023529,-0.054902,-0.196078,-25.490196,-17.647059,-21.568627,2,1,1
2,29,21,-8.470588,-4.235294,57.882353,0.039216,-0.054902,-0.290196,-21.568627,-9.803922,-17.647059,2,1,1
2,29,22,-8.470588,-4.235294,57.882353,0.039216,-0.039216,-0.337255,-13.72549,-1.960784,-13.72549,2,1,1
2,29,23,-8.470588,-4.235294,56.470588,0.039216,-0.023529,-0.337255,-1.960784,1.960784,-13.72549,2,1,1
2,29,24,-8.470588,-4.235294,56.470588,0.054902,-0.023529,-0.290196,-1.960784,5.882353,-5.882353,2,1,1
2,29,25,-8.470588,-4.235294,56.470588,-0.023529,-0.039216,-0.27451,17.647059,9.803922,-9.803922,2,1,1
2,29,26,-8.470588,-2.823529,56.470588,0.023529,-0.054902,-0.133333,5.882353,25.490196,-1.960784,2,1,1
2,29,27,-8.470588,-2.823529,56.470588,0.007843,-0.133333,-0.007843,-1.960784,5.882353,1.960784,2,1,1
2,29,28,-7.058824,-2.823529,56.470588,0.007843,-0.070588,0.007843,29.411765,9.803922,-17.647059,2,1,1
2,29,29,-5.647059,0,56.470588,0.023529,-0.054902,0.117647,21.568627,5.882353,-9.803922,2,1,1
2,30,0,-5.647059,0,55.058824,-0.007843,-0.070588,0.086275,21.568627,-1.960784,-13.72549,2,1,1
2,30,1,-4.235294,0,55.058824,0.007843,0.007843,0.101961,17.647059,5.882353,-9.803922,2,1,1
2,30,2,-4.235294,0,55.058824,0.023529,-0.007843,0.101961,9.803922,1.960784,-1.960784,2,1,1
2,30,3,-2.823529,0,55.058824,0.007843,0.007843,0.023529,17.647059,1.960784,-5.882353,2,1,1
2,30,4,-2.823529,0,55.058824,-0.007843,0.007843,-0.007843,13.72549,5.882353,1.960784,2,1,1
2,30,5,0,1.411765,53.647059,1.152941,-0.635294,0.023529,37.254902,72.54902,-49.019608,2,1,1
2,30,6,0,1.411765,53.647059,-0.290196,0.086275,-0.086275,-9.803922,-1.960784,5.882353,2,1,1
2,30,7,-2.823529,1.411765,53.647059,-0.007843,-0.023529,0.054902,-1.960784,1.960784,-1.960784,2,1,1
2,30,8,0,1.411765,53.647059,-0.023529,-0.007843,0.007843,-1.960784,-1.960784,-1.960784,2,1,1
2,30,9,0,1.411765,53.647059,0.007843,-0.007843,-0.007843,-1.960784,-1.960784,-1.960784,2,1,1
2,30,10,0,1.411765,53.647059,0.039216,-0.007843,-0.039216,-1.960784,-1.960784,-1.960784,2,1,1
2,30,11,0,1.411765,53.647059,0.023529,0.007843,-0.039216,-1.960784,1.960784,-1.960784,2,1,1
2,30,12,-2.823529,2.823529,53.647059,-0.007843,-0.023529,0.227451,-5.882353,17.647059,-1.960784,2,1,1
2,30,13,-2.823529,2.823529,53.647059,0.007843,0.007843,-0.023529,-1.960784,-1.960784,-1.960784,2,1,1
2,30,14,-2.823529,2.823529,53.647059,0.007843,0.007843,-0.023529,-1.960784,1.960784,-1.960784,2,1,1
2,30,15,-2.823529,2.823529,53.647059,-0.007843,-0.007843,-0.007843,-1.960784,-1.960784,-1.960784,2,1,1
2,30,16,-2.823529,2.823529,53.647059,0.023529,0.007843,-0.023529,-5.882353,1.960784,-1.960784,2,1,1
2,30,17,-2.823529,2.823529,53.647059,0.023529,0.164706,0.039216,-29.411765,1.960784,9.803922,2,1,1
2,30,18,-2.823529,2.823529,55.058824,0.070588,-0.164706,0.431373,-9.803922,17.647059,5.882353,2,1,1
2,30,19,-2.823529,1.411765,53.647059,0.086275,0.023529,0.478431,5.882353,-37.254902,-13.72549,2,1,1
2,30,20,-2.823529,0,53.647059,0.054902,0.039216,0.180392,9.803922,-52.941176,-5.882353,2,1,1
2,30,21,-2.823529,-2.823529,53.647059,0.039216,0.054902,-0.054902,-5.882353,-45.098039,-1.960784,2,1,1
2,30,22,-2.823529,-4.235294,55.058824,0.039216,0.039216,-0.227451,-21.568627,-25.490196,9.803922,2,1,1
2,30,23,-2.823529,-4.235294,55.058824,0.039216,0.070588,-0.27451,-25.490196,-17.647059,17.647059,2,1,1
2,30,24,-4.235294,-4.235294,56.470588,0.023529,0.007843,-0.337255,-17.647059,-13.72549,21.568627,2,1,1
2,30,25,-4.235294,-4.235294,56.470588,-0.007843,-0.007843,-0.4,-1.960784,-1.960784,13.72549,2,1,1
2,30,26,-2.823529,-4.235294,56.470588,-0.023529,-0.007843,-0.368627,9.803922,9.803922,13.72549,2,1,1
2,30,27,-2.823529,-4.235294,57.882353,-0.023529,-0.039216,-0.27451,13.72549,17.647059,13.72549,2,1,1
2,30,28,-2.823529,-2.823529,57.882353,-0.023529,-0.054902,-0.164706,17.647059,21.568627,13.72549,2,1,1
2,30,29,0,0,57.882353,-0.023529,-0.086275,-0.086275,17.647059,29.411765,9.803922,2,1,1
2,31,0,0,0,59.294118,-0.023529,-0.101961,0.023529,17.647059,21.568627,9.803922,2,1,1
2,31,1,0,1.411765,59.294118,-0.023529,-0.070588,0.039216,17.647059,17.647059,1.960784,2,1,1
2,31,2,1.411765,1.411765,59.294118,0.007843,-0.023529,0.117647,5.882353,17.647059,5.882353,2,1,1
2,31,3,1.411765,1.411765,59.294118,-0.007843,0.007843,0.070588,17.647059,1.960784,-1.960784,2,1,1
2,31,4,1.411765,2.823529,59.294118,-0.023529,0.039216,0.039216,9.803922,9.803922,1.960784,2,1,1
2,31,5,1.411765,2.823529,59.294118,-0.039216,-0.007843,0.023529,-1.960784,13.72549,5.882353,2,1,1
2,31,6,1.411765,4.235294,59.294118,0.682353,-0.196078,-0.713725,-9.803922,68.627451,5.882353,2,1,1
2,31,7,1.411765,2.823529,59.294118,-0.070588,0.070588,0.023529,9.803922,-29.411765,-13.72549,2,1,1
2,31,8,1.411765,2.823529,59.294118,-0.054902,0.007843,0.039216,-13.72549,-1.960784,5.882353,2,1,1
2,31,9,1.411765,4.235294,59.294118,0.101961,-0.039216,-0.039216,-13.72549,29.411765,5.882353,2,1,1
2,31,10,0,2.823529,59.294118,-0.023529,-0.007843,-0.007843,-1.960784,-1.960784,-1.960784,2,1,1
2,31,11,0,2.823529,59.294118,0.007843,0.007843,-0.007843,-1.960784,-5.882353,-1.960784,2,1,1
2,31,12,0,2.823529,59.294118,0.007843,-0.007843,-0.007843,-1.960784,-1.960784,-1.960784,2,1,1
2,31,13,0,2.823529,59.294118,0.007843,-0.007843,-0.007843,-1.960784,-1.960784,-1.960784,2,1,1
2,31,14,0,2.823529,59.294118,-0.007843,-0.007843,-0.023529,-1.960784,-1.960784,-1.960784,2,1,1
2,31,15,0,2.823529,59.294118,-0.007843,-0.023529,-0.039216,-1.960784,-1.960784,-1.960784,2,1,1
2,31,16,0,2.823529,59.294118,-0.007843,0.007843,0.023529,-1.960784,1.960784,-1.960784,2,1,1
2,31,17,0,2.823529,59.294118,-0.007843,-0.007843,-0.007843,-1.960784,-1.960784,-1.960784,2,1,1
2,31,18,0,2.823529,59.294118,-0.007843,-0.007843,-0.023529,-1.960784,-1.960784,-1.960784,2,1,1
2,31,19,0,2.823529,59.294118,-0.007843,-0.007843,-0.007843,-1.960784,-1.960784,-1.960784,2,1,1
2,31,20,0,2.823529,59.294118,-0.007843,0.007843,-0.054902,-1.960784,-1.960784,-1.960784,2,1,1
2,31,21,0,2.823529,59.294118,0.133333,0.023529,0.070588,-1.960784,-1.960784,1.960784,2,1,1
2,31,22,0,2.823529,60.705882,-0.070588,-0.023529,0.086275,-9.803922,13.72549,17.647059,2,1,1
2,31,23,0,4.235294,60.705882,0.023529,-0.117647,0.4,5.882353,45.098039,-1.960784,2,1,1
2,31,24,1.411765,5.647059,59.294118,-0.023529,-0.070588,0.447059,17.647059,37.254902,-25.490196,2,1,1
2,31,25,0,4.235294,59.294118,0.039216,0.101961,0.52549,-29.411765,-45.098039,-5.882353,2,1,1
2,31,26,-2.823529,1.411765,59.294118,-0.039216,0.007843,-0.133333,-52.941176,-60.784314,1.960784,2,1,1
2,31,27,-4.235294,1.411765,59.294118,-0.023529,0.086275,-0.305882,-60.784314,-29.411765,5.882353,2,1,1
2,31,28,-5.647059,0,60.705882,-0.007843,0.007843,-0.415686,-60.784314,-13.72549,9.803922,2,1,1
2,31,29,-7.058824,0,60.705882,0.007843,-0.023529,-0.384314,-33.333333,-25.490196,-1.960784,2,2,1
2,31,30,-7.058824,-2.823529,60.705882,-0.039216,0.023529,-0.541176,-17.647059,-21.568627,-9.803922,2,2,1
2,32,0,-7.058824,-2.823529,60.705882,-0.039216,-0.023529,-0.478431,5.882353,-1.960784,-1.960784,2,2,1
2,32,1,-7.058824,0,59.294118,-0.054902,-0.101961,-0.4,9.803922,9.803922,-1.960784,2,2,1
2,32,2,-7.058824,1.411765,59.294118,-0.070588,-0.086275,-0.164706,5.882353,29.411765,-5.882353,2,2,1
2,32,3,-5.647059,1.411765,60.705882,-0.054902,-0.14902,0.039216,13.72549,13.72549,5.882353,2,2,1
2,32,4,-5.647059,2.823529,60.705882,-0.054902,-0.211765,0.054902,13.72549,21.568627,-1.960784,2,2,1
2,32,5,-5.647059,2.823529,59.294118,-0.023529,-0.196078,0.227451,9.803922,17.647059,-5.882353,2,2,1
2,32,6,-5.647059,2.823529,59.294118,-0.007843,-0.164706,0.211765,-1.960784,9.803922,-5.882353,2,2,1
2,32,7,-5.647059,2.823529,59.294118,-0.007843,-0.117647,0.14902,17.647059,1.960784,-9.803922,2,2,1
2,32,8,-4.235294,2.823529,59.294118,-0.007843,-0.070588,0.039216,9.803922,5.882353,-5.882353,2,2,1
2,32,9,-2.823529,-5.647059,60.705882,1.984314,0.901961,0.964706,60.784314,-268.627451,33.333333,2,2,1
2,32,10,0,-7.058824,60.705882,-0.039216,-0.054902,-0.117647,29.411765,-17.647059,-9.803922,2,2,1
2,32,11,1.411765,-7.058824,60.705882,-0.070588,-0.023529,0.007843,33.333333,-9.803922,-5.882353,2,2,1
2,32,12,2.823529,-7.058824,60.705882,-0.101961,-0.039216,-0.039216,49.019608,-17.647059,-1.960784,2,2,1
2,32,13,2.823529,-7.058824,60.705882,-0.007843,0.086275,-0.086275,-1.960784,1.960784,1.960784,2,2,1
2,32,14,2.823529,-7.058824,60.705882,0.007843,-0.023529,-0.007843,-1.960784,-1.960784,-1.960784,2,2,1
2,32,15,2.823529,-7.058824,60.705882,0.039216,-0.007843,-0.039216,-1.960784,-1.960784,-1.960784,2,2,1
2,32,16,2.823529,-5.647059,60.705882,-0.023529,0.007843,0.007843,-1.960784,-1.960784,-1.960784,2,2,1
2,32,17,2.823529,-5.647059,60.705882,0.007843,-0.007843,-0.023529,-1.960784,-1.960784,-1.960784,2,2,1
2,32,18,2.823529,-7.058824,60.705882,-0.007843,-0.007843,-0.007843,-1.960784,-9.803922,-1.960784,2,2,1
2,32,19,2.823529,-5.647059,60.705882,-0.007843,-0.007843,-0.007843,-1.960784,5.882353,-1.960784,2,2,1
2,32,20,2.823529,-5.647059,60.705882,-0.007843,-0.007843,-0.023529,-1.960784,1.960784,-1.960784,2,2,1
2,32,21,2.823529,-5.647059,60.705882,0.007843,-0.007843,-0.039216,-1.960784,-1.960784,-1.960784,2,2,1
2,32,22,2.823529,-5.647059,60.705882,-0.007843,-0.007843,0.023529,-1.960784,-1.960784,-1.960784,2,2,1
2,32,23,2.823529,-5.647059,59.294118,-0.039216,0.039216,0.023529,-1.960784,-9.803922,-17.647059,2,2,1
2,32,24,2.823529,-5.647059,59.294118,0.007843,-0.023529,0.070588,25.490196,-5.882353,-17.647059,2,2,1
2,32,25,4.235294,-7.058824,59.294118,0.101961,0.023529,0.447059,21.568627,-41.176471,-1.960784,2,2,1
2,32,26,4.235294,-8.470588,59.294118,0.133333,-0.054902,0.478431,1.960784,-33.333333,-5.882353,2,2,1
2,32,27,2.823529,-9.882353,59.294118,0.164706,-0.039216,0.478431,-37.254902,-37.254902,1.960784,2,2,1
2,32,28,1.411765,-11.294118,59.294118,0.164706,-0.023529,0.447059,-37.254902,-45.098039,-5.882353,2,2,1
2,32,29,0,-12.705882,59.294118,0.14902,0.023529,0.305882,-41.176471,-72.54902,-1.960784,2,2,1
2,33,0,-2.823529,-15.529412,59.294118,0.117647,-0.023529,-0.023529,-45.098039,-72.54902,-1.960784,2,1,1
2,33,1,-5.647059,-16.941176,59.294118,0.133333,-0.086275,-0.321569,-68.627451,-56.862745,-5.882353,2,1,1
2,33,2,-7.058824,-18.352941,57.882353,0.086275,-0.039216,-0.494118,-68.627451,-33.333333,-13.72549,2,1,1
2,33,3,-8.470588,-18.352941,57.882353,0.086275,0.039216,-0.556863,-60.784314,-21.568627,-13.72549,2,1,1
2,33,4,-9.882353,-19.764706,57.882353,0.086275,0.023529,-0.635294,-41.176471,-21.568627,9.803922,2,1,1
2,33,5,-9.882353,-18.352941,59.294118,0.086275,-0.086275,-0.698039,-9.803922,-1.960784,1.960784,2,1,1
2,33,6,-9.882353,-18.352941,59.294118,0.086275,-0.054902,-0.698039,13.72549,17.647059,-1.960784,2,1,1
2,33,7,-8.470588,-16.941176,59.294118,0.070588,-0.007843,-0.509804,17.647059,37.254902,1.960784,2,1,1
2,33,8,-8.470588,-15.529412,59.294118,0.054902,-0.070588,-0.337255,21.568627,49.019608,5.882353,2,1,1
2,33,9,-7.058824,-14.117647,59.294118,0.070588,-0.117647,-0.086275,37.254902,45.098039,1.960784,2,1,1
2,33,10,-4.235294,-12.705882,59.294118,0.054902,-0.101961,-0.007843,60.784314,29.411765,1.960784,2,1,1
2,33,11,-2.823529,-11.294118,59.294118,0.070588,-0.117647,0.039216,64.705882,33.333333,-1.960784,2,1,1
2,33,12,0,-9.882353,59.294118,0.086275,-0.054902,0.101961,33.333333,29.411765,1.960784,2,1,1
2,33,13,1.411765,-8.470588,59.294118,0.070588,-0.054902,0.133333,33.333333,33.333333,1.960784,2,1,1
2,33,14,1.411765,-8.470588,59.294118,0.086275,-0.070588,0.227451,21.568627,17.647059,-1.960784,2,1,1
2,33,15,2.823529,-7.058824,59.294118,0.086275,0.007843,0.133333,17.647059,13.72549,-1.960784,2,1,1
2,33,16,2.823529,-7.058824,59.294118,0.070588,-0.054902,0.196078,5.882353,29.411765,5.882353,2,0,1
2,33,17,1.411765,-5.647059,60.705882,0.054902,-0.023529,0.258824,-13.72549,17.647059,5.882353,2,0,1
2,33,18,1.411765,-5.647059,60.705882,0.039216,-0.039216,0.180392,-9.803922,9.803922,5.882353,2,0,1
2,33,19,1.411765,-5.647059,60.705882,0.023529,-0.086275,0.054902,-5.882353,-1.960784,-1.960784,2,0,1
2,33,20,1.411765,-4.235294,60.705882,-0.023529,-0.007843,-0.086275,-9.803922,13.72549,1.960784,2,0,1
2,33,21,1.411765,-5.647059,60.705882,-0.054902,0.27451,0.807843,-1.960784,-33.333333,13.72549,2,0,1
2,33,22,1.411765,-5.647059,60.705882,-0.039216,0.039216,0.039216,-5.882353,-1.960784,5.882353,2,0,1
2,33,23,1.411765,-5.647059,62.117647,-0.007843,0.007843,-0.023529,-1.960784,1.960784,5.882353,2,0,1
2,33,24,1.411765,-5.647059,62.117647,0.007843,-0.007843,-0.023529,-1.960784,-5.882353,1.960784,2,0,1
2,33,25,1.411765,-5.647059,62.117647,0.007843,-0.007843,-0.007843,-1.960784,-1.960784,-1.960784,2,0,1
2,33,26,1.411765,-5.647059,62.117647,0.007843,-0.007843,-0.007843,-5.882353,-1.960784,-1.960784,2,0,1
2,33,27,1.411765,-5.647059,60.705882,0.007843,-0.039216,0.023529,1.960784,-1.960784,-17.647059,2,0,1
2,33,28,1.411765,-5.647059,60.705882,0.007843,-0.023529,0.196078,21.568627,-9.803922,-13.72549,2,0,1
2,33,29,1.411765,-5.647059,60.705882,0.007843,-0.086275,0.4,9.803922,-13.72549,-9.803922,2,0,1
2,34,0,0,-7.058824,60.705882,0.054902,-0.101961,0.415686,-33.333333,-21.568627,-13.72549,2,0,1
2,34,1,0,-7.058824,59.294118,0.117647,-0.023529,0.431373,-41.176471,-25.490196,-13.72549,2,0,1
2,34,2,-2.823529,-8.470588,59.294118,0.14902,-0.007843,0.337255,-41.176471,-45.098039,-9.803922,2,1,1
2,34,3,-4.235294,-9.882353,59.294118,0.14902,-0.039216,0.180392,-49.019608,-49.019608,-5.882353,2,1,1
2,34,4,-5.647059,-11.294118,59.294118,0.14902,-0.023529,-0.070588,-41.176471,-52.941176,-5.882353,2,1,1
2,34,5,-7.058824,-12.705882,59.294118,0.133333,-0.023529,-0.27451,-37.254902,-41.176471,-5.882353,2,1,1
2,34,6,-8.470588,-14.117647,59.294118,0.101961,-0.007843,-0.431373,-41.176471,-33.333333,-1.960784,2,1,1
2,34,7,-9.882353,-14.117647,59.294118,0.101961,-0.007843,-0.556863,-37.254902,-17.647059,5.882353,2,1,1
2,34,8,-9.882353,-15.529412,59.294118,0.086275,-0.070588,-0.572549,-33.333333,-5.882353,13.72549,2,1,1
2,34,9,-11.294118,-15.529412,59.294118,0.054902,-0.101961,-0.588235,-13.72549,-5.882353,5.882353,2,1,1
2,34,10,-9.882353,-14.117647,60.705882,0.023529,-0.054902,-0.619608,21.568627,5.882353,1.960784,2,1,1
2,34,11,-9.882353,-14.117647,60.705882,0.039216,-0.039216,-0.415686,17.647059,21.568627,5.882353,2,1,1
2,34,12,-8.470588,-12.705882,60.705882,0.039216,-0.101961,-0.258824,5.882353,29.411765,13.72549,2,1,1
2,34,13,-8.470588,-11.294118,60.705882,0.023529,-0.133333,-0.164706,29.411765,37.254902,5.882353,2,1,1
2,34,14,-7.058824,-9.882353,60.705882,0.039216,-0.117647,0.023529,37.254902,33.333333,1.960784,2,1,1
2,34,15,-5.647059,-8.470588,62.117647,0.039216,-0.086275,0.039216,33.333333,33.333333,5.882353,2,1,1
2,34,16,-4.235294,-7.058824,62.117647,0.007843,-0.101961,0.117647,37.254902,37.254902,1.960784,2,1,1
2,34,17,-4.235294,-5.647059,62.117647,0.023529,-0.070588,0.243137,21.568627,29.411765,-1.960784,2,1,1
2,34,18,-2.823529,-5.647059,62.117647,0.007843,-0.070588,0.211765,17.647059,17.647059,1.960784,2,1,1
2,34,19,-2.823529,-4.235294,62.117647,0.007843,-0.070588,0.164706,21.568627,21.568627,-1.960784,2,1,1
2,34,20,0,-4.235294,62.117647,0.023529,-0.086275,0.211765,13.72549,9.803922,-1.960784,2,1,1
2,34,21,0,-4.235294,62.117647,0.007843,-0.054902,0.070588,9.803922,5.882353,-5.882353,2,1,1
2,34,22,0,-2.823529,62.117647,-0.007843,-0.007843,0.039216,5.882353,13.72549,-1.960784,2,1,1
2,34,23,0,-2.823529,62.117647,-0.007843,0.007843,-0.023529,-5.882353,9.803922,1.960784,2,1,1
2,34,24,0,-2.823529,62.117647,-0.023529,0.023529,-0.101961,5.882353,9.803922,5.882353,2,1,1
2,34,25,0,-4.235294,62.117647,-0.666667,0.039216,0.964706,1.960784,-49.019608,-1.960784,2,1,1
2,34,26,0,-4.235294,62.117647,-0.133333,-0.007843,0.039216,-1.960784,-5.882353,-1.960784,2,1,1
2,34,27,0,-4.235294,62.117647,-0.039216,-0.023529,-0.007843,-1.960784,-1.960784,-1.960784,2,1,1
2,34,28,0,-4.235294,62.117647,-0.023529,-0.007843,0.007843,-1.960784,-1.960784,-1.960784,2,1,1
2,34,29,0,-4.235294,62.117647,0.039216,-0.007843,-0.054902,-1.960784,-1.960784,-1.960784,2,1,1
2,35,0,0,-4.235294,62.117647,-0.007843,-0.007843,-0.007843,-1.960784,-1.960784,-1.960784,2,1,1
2,35,1,0,-4.235294,62.117647,-0.007843,-0.007843,0.007843,-1.960784,-9.803922,-1.960784,2,1,1
2,35,2,0,-4.235294,62.117647,-0.023529,-0.086275,-0.070588,-1.960784,-1.960784,-5.882353,2,1,1
2,35,3,0,-4.235294,62.117647,-0.007843,-0.007843,0.164706,-17.647059,-1.960784,-5.882353,2,1,1
2,35,4,-2.823529,-4.235294,62.117647,-0.039216,-0.007843,0.227451,-13.72549,-21.568627,-1.960784,2,2,1
2,35,5,-2.823529,-4.235294,62.117647,-0.023529,-0.117647,0.211765,-1.960784,-17.647059,-9.803922,2,2,1
2,35,6,-2.823529,-5.647059,60.705882,-0.023529,-0.101961,0.227451,-13.72549,-21.568627,-13.72549,2,2,1
2,35,7,-2.823529,-5.647059,60.705882,0.007843,-0.101961,0.196078,-17.647059,-25.490196,-17.647059,2,2,1
2,35,8,-4.235294,-7.058824,60.705882,0.039216,-0.133333,0.14902,-21.568627,-33.333333,-21.568627,2,2,1
2,35,9,-4.235294,-8.470588,59.294118,0.070588,-0.164706,0.086275,-25.490196,-29.411765,-21.568627,2,2,1
2,35,10,-5.647059,-8.470588,57.882353,0.086275,-0.164706,0.007843,-29.411765,-25.490196,-29.411765,2,2,1
2,35,11,-7.058824,-9.882353,57.882353,0.070588,-0.164706,-0.133333,-33.333333,-17.647059,-33.333333,2,2,1
2,35,12,-8.470588,-9.882353,56.470588,0.086275,-0.196078,-0.211765,-29.411765,-9.803922,-41.176471,2,2,1
2,35,13,-8.470588,-9.882353,55.058824,0.070588,-0.180392,-0.258824,-21.568627,-9.803922,-49.019608,2,2,1
2,35,14,-9.882353,-9.882353,53.647059,0.054902,-0.086275,-0.352941,-25.490196,-13.72549,-45.098039,2,2,1
2,35,15,-9.882353,-9.882353,52.235294,0.039216,-0.101961,-0.447059,-21.568627,-5.882353,-41.176471,2,2,1
2,35,16,-9.882353,-9.882353,50.823529,0.054902,-0.007843,-0.431373,1.960784,-5.882353,-49.019608,2,2,1
2,35,17,-8.470588,-9.882353,48,0.070588,0.101961,-0.447059,17.647059,1.960784,-49.019608,2,2,1
2,35,18,-8.470588,-9.882353,48,0.070588,0.164706,-0.337255,13.72549,17.647059,-33.333333,2,2,1
2,35,19,-8.470588,-8.470588,46.588235,0.086275,0.117647,-0.14902,-5.882353,29.411765,-17.647059,2,2,1
2,35,20,-8.470588,-7.058824,46.588235,0.070588,0.086275,-0.086275,-1.960784,33.333333,-5.882353,2,1,1
2,35,21,-7.058824,-5.647059,46.588235,0.086275,-0.007843,0.054902,25.490196,37.254902,-9.803922,2,1,1
2,35,22,-5.647059,-5.647059,46.588235,0.086275,0.070588,0.070588,29.411765,29.411765,-9.803922,2,1,1
2,35,23,-4.235294,-4.235294,46.588235,0.070588,-0.007843,0.164706,33.333333,33.333333,-5.882353,2,1,1
2,35,24,-4.235294,-2.823529,46.588235,0.054902,-0.007843,0.14902,21.568627,25.490196,-5.882353,2,1,1
2,35,25,-2.823529,-2.823529,46.588235,0.054902,-0.039216,0.180392,21.568627,21.568627,-5.882353,2,1,1
2,35,26,-2.823529,0,46.588235,0.054902,0.007843,0.133333,13.72549,13.72549,-1.960784,2,1,1
2,35,27,0,0,46.588235,0.039216,0.007843,0.086275,5.882353,17.647059,1.960784,2,1,1
2,35,28,-2.823529,0,46.588235,0.039216,0.023529,0.054902,-9.803922,17.647059,5.882353,2,1,1
2,35,29,-2.823529,1.411765,46.588235,0.007843,0.023529,-0.007843,-1.960784,13.72549,5.882353,2,1,1
2,35,30,-4.235294,0,48,-0.117647,0.321569,0.180392,-84.313725,-41.176471,25.490196,2,1,1
2,36,0,-4.235294,0,48,-0.023529,-0.023529,-0.070588,-1.960784,-1.960784,-5.882353,2,1,1
2,36,1,-4.235294,0,48,-0.023529,0.007843,-0.007843,-1.960784,-1.960784,-1.960784,2,1,1
2,36,2,-4.235294,0,48,-0.039216,-0.007843,0.007843,-1.960784,-5.882353,-1.960784,2,1,1
2,36,3,-4.235294,0,48,-0.023529,-0.007843,0.007843,-1.960784,-5.882353,-1.960784,2,1,1
2,36,4,-4.235294,0,48,-0.007843,-0.007843,-0.007843,-1.960784,-1.960784,-1.960784,2,1,1
2,36,5,-4.235294,0,48,-0.023529,-0.007843,0.039216,-1.960784,-9.803922,-1.960784,2,1,1
2,36,6,-4.235294,-2.823529,48,0.007843,0.054902,0.101961,-17.647059,-13.72549,1.960784,2,1,1
2,36,7,-5.647059,-2.823529,48,0.007843,-0.007843,0.290196,-13.72549,-9.803922,5.882353,2,1,1
2,36,8,-5.647059,-2.823529,48,0.023529,-0.086275,0.243137,-1.960784,-25.490196,1.960784,2,1,1
2,36,9,-5.647059,-4.235294,48,0.023529,-0.054902,0.290196,-13.72549,-25.490196,1.960784,2,1,1
2,36,10,-5.647059,-5.647059,48,0.023529,-0.054902,0.196078,-25.490196,-33.333333,1.960784,2,1,1
2,36,11,-5.647059,-5.647059,48,0.023529,-0.039216,0.086275,-13.72549,-33.333333,1.960784,2,1,1
2,36,12,-7.058824,-7.058824,49.411765,0.039216,-0.039216,0.039216,-25.490196,-25.490196,9.803922,2,1,1
2,36,13,-8.470588,-7.058824,49.411765,0.039216,-0.070588,-0.039216,-37.254902,-21.568627,13.72549,2,1,1
2,36,14,-8.470588,-7.058824,49.411765,0.023529,-0.070588,-0.133333,-25.490196,-17.647059,9.803922,2,1,1
2,36,15,-8.470588,-8.470588,49.411765,0.023529,0.007843,-0.196078,-9.803922,-17.647059,9.803922,2,1,1
2,36,16,-8.470588,-8.470588,50.823529,0.007843,0.086275,-0.305882,-5.882353,-17.647059,29.411765,2,1,1
2,36,17,-8.470588,-8.470588,52.235294,-0.007843,-0.039216,-0.431373,-1.960784,-1.960784,25.490196,2,1,1
2,36,18,-8.470588,-8.470588,52.235294,0.023529,-0.086275,-0.431373,-9.803922,9.803922,9.803922,2,1,1
2,36,19,-8.470588,-7.058824,52.235294,0.039216,0.007843,-0.384314,5.882353,17.647059,-1.960784,2,1,1
2,36,20,-8.470588,-7.058824,52.235294,0.054902,0.007843,-0.321569,13.72549,9.803922,5.882353,2,1,1
2,36,21,-7.058824,-5.647059,52.235294,0.070588,-0.117647,-0.27451,9.803922,17.647059,5.882353,2,1,1
2,36,22,-7.058824,-5.647059,52.235294,0.101961,-0.133333,-0.086275,5.882353,21.568627,1.960784,2,1,1
2,36,23,-7.058824,-5.647059,52.235294,0.101961,-0.164706,-0.070588,17.647059,9.803922,-5.882353,2,1,1
2,36,24,-5.647059,-4.235294,52.235294,0.086275,-0.133333,-0.039216,49.019608,13.72549,-13.72549,2,1,1
2,36,25,-4.235294,-4.235294,52.235294,0.086275,-0.133333,0.023529,29.411765,13.72549,-9.803922,2,1,1
2,36,26,-4.235294,-4.235294,52.235294,0.070588,-0.086275,0.054902,13.72549,9.803922,-9.803922,2,1,1
2,36,27,-2.823529,-2.823529,52.235294,0.070588,-0.007843,0.023529,25.490196,17.647059,-9.803922,2,1,1
2,36,28,-2.823529,-2.823529,50.823529,0.054902,-0.070588,0.133333,17.647059,21.568627,-5.882353,2,1,1
2,36,29,0,-2.823529,50.823529,0.039216,0.007843,0.101961,9.803922,9.803922,-5.882353,2,1,1
2,37,0,0,0,50.823529,0.007843,0.007843,0.086275,9.803922,17.647059,1.960784,2,1,1
2,37,1,0,0,52.235294,0.007843,-0.023529,0.101961,-1.960784,21.568627,1.960784,2,1,1
2,37,2,0,1.411765,50.823529,-0.321569,-0.070588,-0.070588,9.803922,13.72549,-5.882353,2,1,1
2,37,3,0,1.411765,50.823529,0.070588,-0.054902,-0.133333,5.882353,-1.960784,-1.960784,2,1,1
2,37,4,0,1.411765,52.235294,0.007843,-0.007843,-0.007843,-5.882353,-9.803922,1.960784,2,1,1
2,37,5,0,1.411765,50.823529,-0.101961,0.007843,0.117647,-1.960784,-1.960784,-1.960784,2,1,1
2,37,6,0,1.411765,52.235294,-0.007843,-0.007843,-0.007843,-1.960784,-1.960784,-1.960784,2,1,1
2,37,7,0,1.411765,50.823529,-0.023529,0.007843,-0.007843,-1.960784,-1.960784,-1.960784,2,1,1
2,37,8,0,1.411765,50.823529,0.007843,-0.007843,-0.007843,-1.960784,-1.960784,-1.960784,2,1,1
2,37,9,0,1.411765,50.823529,-0.007843,-0.007843,-0.007843,-1.960784,-1.960784,-1.960784,2,1,1
2,37,10,0,1.411765,50.823529,0.039216,-0.039216,0.039216,-9.803922,-1.960784,-5.882353,2,1,1
2,37,11,0,0,50.823529,0.054902,-0.086275,0.196078,-9.803922,-5.882353,-1.960784,2,1,1
2,37,12,-2.823529,0,52.235294,0.070588,-0.133333,0.227451,-17.647059,1.960784,1.960784,2,1,1
2,37,13,-2.823529,0,52.235294,0.054902,-0.164706,0.243137,-25.490196,-9.803922,-1.960784,2,1,1
2,37,14,-4.235294,0,50.823529,0.039216,-0.133333,0.164706,-29.411765,-17.647059,-5.882353,2,1,1
2,37,15,-5.647059,-2.823529,50.823529,0.023529,-0.14902,0.054902,-29.411765,-21.568627,-9.803922,2,1,1
2,37,16,-7.058824,-2.823529,50.823529,0.007843,-0.133333,-0.023529,-41.176471,-21.568627,-9.803922,2,1,1
2,37,17,-8.470588,-4.235294,50.823529,-0.007843,-0.14902,-0.133333,-37.254902,-17.647059,-9.803922,2,1,1
2,37,18,-8.470588,-4.235294,50.823529,-0.023529,-0.14902,-0.196078,-33.333333,-9.803922,-13.72549,2,1,1
2,37,19,-9.882353,-4.235294,49.411765,-0.039216,-0.133333,-0.211765,-29.411765,-9.803922,-17.647059,2,1,1
2,37,20,-9.882353,-4.235294,49.411765,-0.023529,-0.054902,-0.27451,-17.647059,-9.803922,-17.647059,2,1,1
2,37,21,-9.882353,-4.235294,48,-0.023529,-0.039216,-0.368627,1.960784,-5.882353,-13.72549,2,1,1
2,37,22,-9.882353,-4.235294,48,-0.039216,-0.101961,-0.384314,5.882353,5.882353,-17.647059,2,1,1
2,37,23,-9.882353,-2.823529,48,-0.007843,-0.070588,-0.290196,-1.960784,21.568627,-25.490196,2,0,1
2,37,24,-9.882353,-2.823529,46.588235,-0.007843,-0.023529,-0.211765,13.72549,17.647059,-25.490196,2,0,1
2,37,25,-8.470588,0,45.176471,-0.007843,-0.023529,-0.133333,21.568627,13.72549,-25.490196,2,0,1
2,37,26,-7.058824,0,45.176471,0.007843,-0.007843,-0.054902,17.647059,25.490196,-21.568627,2,0,1
2,37,27,-7.058824,1.411765,45.176471,0.007843,-0.023529,0.086275,17.647059,29.411765,-17.647059,2,0,1
2,37,28,-5.647059,1.411765,43.764706,0.023529,-0.007843,0.117647,25.490196,13.72549,-17.647059,2,0,1
2,37,29,-5.647059,2.823529,43.764706,0.007843,-0.007843,0.039216,21.568627,17.647059,-13.72549,2,0,1
2,38,0,-4.235294,2.823529,43.764706,0.007843,0.007843,0.101961,5.882353,21.568627,-5.882353,2,0,1
2,38,1,-4.235294,4.235294,43.764706,-0.007843,-0.007843,0.133333,13.72549,13.72549,-5.882353,2,0,1
2,38,2,-2.823529,4.235294,43.764706,-0.023529,0.023529,0.023529,25.490196,9.803922,-1.960784,2,0,1
2,38,3,0,5.647059,42.352941,-0.666667,-0.007843,0.196078,64.705882,33.333333,-17.647059,2,0,1
2,38,4,0,5.647059,42.352941,-0.14902,-0.007843,0.196078,-1.960784,-21.568627,1.960784,2,0,1
2,38,5,0,5.647059,42.352941,-0.101961,0.007843,0.039216,-1.960784,-1.960784,-1.960784,2,0,1
2,38,6,0,4.235294,42.352941,-0.023529,-0.007843,0.007843,-1.960784,-1.960784,-1.960784,2,0,1
2,38,7,0,4.235294,42.352941,-0.007843,-0.007843,-0.023529,-1.960784,-1.960784,-1.960784,2,0,1
2,38,8,0,4.235294,42.352941,0.007843,0.007843,-0.007843,-1.960784,-1.960784,-1.960784,2,0,1
2,38,9,0,4.235294,42.352941,-0.007843,-0.007843,-0.007843,-1.960784,-1.960784,-1.960784,2,1,1
2,38,10,0,4.235294,42.352941,-0.007843,-0.039216,0.007843,-1.960784,-5.882353,-5.882353,2,1,1
2,38,11,0,4.235294,42.352941,0.023529,0.007843,0.023529,-1.960784,-5.882353,-5.882353,2,1,1
2,38,12,0,4.235294,42.352941,0.070588,-0.007843,0.321569,-1.960784,-1.960784,-1.960784,2,1,1
2,38,13,0,2.823529,42.352941,0.086275,-0.007843,0.27451,-5.882353,-21.568627,1.960784,2,1,1
2,38,14,0,2.823529,43.764706,0.117647,0.039216,0.290196,-13.72549,-21.568627,5.882353,2,1,1
2,38,15,-2.823529,1.411765,43.764706,0.133333,0.054902,0.196078,-21.568627,-25.490196,13.72549,2,1,1
2,38,16,-2.823529,0,43.764706,0.133333,0.023529,0.180392,-29.411765,-33.333333,21.568627,2,1,1
2,38,17,-4.235294,-2.823529,45.176471,0.117647,0.007843,0.039216,-29.411765,-41.176471,17.647059,2,1,1
2,38,18,-4.235294,-4.235294,46.588235,0.101961,-0.007843,-0.086275,-25.490196,-41.176471,25.490196,2,1,1
2,38,19,-5.647059,-5.647059,46.588235,0.086275,-0.054902,-0.117647,-33.333333,-29.411765,25.490196,2,1,1
2,38,20,-7.058824,-5.647059,48,0.070588,-0.039216,-0.164706,-21.568627,-33.333333,25.490196,2,1,1
2,38,21,-7.058824,-7.058824,48,0.070588,-0.086275,-0.290196,-5.882353,-29.411765,21.568627,2,1,1
2,38,22,-7.058824,-7.058824,49.411765,0.039216,-0.086275,-0.384314,-9.803922,-17.647059,21.568627,2,1,1
2,38,23,-7.058824,-7.058824,50.823529,0.023529,-0.086275,-0.447059,-9.803922,1.960784,21.568627,2,1,1
2,38,24,-7.058824,-7.058824,50.823529,0.023529,-0.070588,-0.4,1.960784,5.882353,17.647059,2,1,1
2,38,25,-7.058824,-7.058824,50.823529,0.007843,-0.070588,-0.447059,17.647059,5.882353,17.647059,2,1,1
2,38,26,-5.647059,-5.647059,52.235294,0.007843,-0.070588,-0.368627,17.647059,21.568627,17.647059,2,1,1
2,38,27,-5.647059,-5.647059,52.235294,0.007843,-0.039216,-0.243137,13.72549,25.490196,17.647059,2,1,1
2,38,28,-5.647059,-4.235294,53.647059,0.007843,-0.070588,-0.164706,9.803922,21.568627,21.568627,2,1,1
2,38,29,-4.235294,-2.823529,53.647059,-0.007843,-0.117647,-0.101961,29.411765,41.176471,13.72549,2,1,1
2,38,30,-2.823529,0,55.058824,-0.007843,-0.101961,0.101961,21.568627,37.254902,13.72549,2,1,1
2,39,0,-2.823529,1.411765,55.058824,0.007843,-0.101961,0.164706,25.490196,33.333333,9.803922,2,1,1
2,39,1,0,1.411765,55.058824,-0.039216,-0.101961,0.180392,33.333333,29.411765,9.803922,2,1,1
2,39,2,0,2.823529,55.058824,-0.039216,-0.054902,0.227451,5.882353,33.333333,9.803922,2,1,1
2,39,3,0,4.235294,56.470588,-0.054902,-0.070588,0.211765,1.960784,17.647059,9.803922,2,1,1
2,39,4,1.411765,5.647059,53.647059,1.623529,-1.952941,0.964706,41.176471,92.156863,-88.235294,2,1,1
2,39,5,1.411765,5.647059,52.235294,0.321569,-0.211765,-0.101961,5.882353,-13.72549,-13.72549,2,1,1
2,39,6,0,5.647059,53.647059,0.054902,0.039216,-0.054902,-13.72549,-5.882353,1.960784,2,1,1
2,39,7,0,4.235294,53.647059,0.007843,0.007843,-0.039216,-1.960784,-1.960784,-1.960784,2,1,1
2,39,8,0,4.235294,53.647059,0.007843,0.007843,-0.023529,-1.960784,-1.960784,-1.960784,2,1,1
2,39,9,0,4.235294,53.647059,-0.007843,-0.007843,-0.007843,-1.960784,-1.960784,-1.960784,2,1,1
2,39,10,0,4.235294,53.647059,-0.023529,-0.007843,-0.007843,-1.960784,-5.882353,-1.960784,2,1,1
2,39,11,0,4.235294,53.647059,-0.007843,-0.007843,-0.007843,-1.960784,-1.960784,-1.960784,2,1,1
2,39,12,0,4.235294,53.647059,-0.007843,-0.007843,-0.007843,-1.960784,-1.960784,-1.960784,2,1,1
2,39,13,0,4.235294,52.235294,-0.007843,-0.007843,-0.023529,-1.960784,-1.960784,-1.960784,2,1,1
2,39,14,0,4.235294,52.235294,0.007843,0.007843,0.007843,-5.882353,-1.960784,-17.647059,2,1,1
2,39,15,0,4.235294,52.235294,0.039216,0.164706,0.462745,1.960784,9.803922,5.882353,2,1,1
2,39,16,1.411765,2.823529,53.647059,0.070588,-0.117647,0.713725,17.647059,-37.254902,13.72549,2,1,1
2,39,17,0,1.411765,53.647059,0.133333,-0.023529,0.541176,-13.72549,-45.098039,1.960784,2,1,1
2,39,18,-2.823529,0,53.647059,0.164706,0.007843,0.4,-45.098039,-52.941176,9.803922,2,1,1
2,39,19,-2.823529,-4.235294,53.647059,0.14902,0.007843,0.227451,-37.254902,-64.705882,9.803922,2,1,1
2,39,20,-4.235294,-5.647059,55.058824,0.117647,0.007843,-0.101961,-29.411765,-60.784314,9.803922,2,1,1
2,39,21,-5.647059,-8.470588,55.058824,0.101961,-0.007843,-0.290196,-37.254902,-49.019608,13.72549,2,1,1
2,39,22,-7.058824,-8.470588,56.470588,0.117647,-0.023529,-0.384314,-72.54902,-29.411765,21.568627,2,1,1
2,39,23,-9.882353,-9.882353,56.470588,0.101961,-0.054902,-0.494118,-56.862745,-25.490196,21.568627,2,1,1
2,39,24,-9.882353,-9.882353,57.882353,0.086275,-0.086275,-0.541176,-29.411765,-21.568627,17.647059,2,1,1
2,39,25,-11.294118,-11.294118,57.882353,0.101961,-0.086275,-0.556863,-29.411765,-17.647059,17.647059,2,1,1
2,39,26,-11.294118,-11.294118,57.882353,0.070588,-0.070588,-0.619608,1.960784,-13.72549,13.72549,2,0,1
2,39,27,-9.882353,-11.294118,59.294118,0.070588,-0.054902,-0.509804,17.647059,5.882353,13.72549,2,0,1
2,39,28,-9.882353,-11.294118,59.294118,0.086275,-0.070588,-0.4,13.72549,1.960784,17.647059,2,0,1
2,39,29,-8.470588,-9.882353,60.705882,0.070588,-0.101961,-0.352941,33.333333,17.647059,13.72549,2,0,1
2,40,0,-7.058824,-9.882353,60.705882,0.101961,-0.14902,-0.101961,41.176471,17.647059,13.72549,2,0,1
2,40,1,-5.647059,-9.882353,60.705882,0.070588,-0.164706,-0.133333,37.254902,13.72549,9.803922,2,0,1
2,40,2,-5.647059,-8.470588,62.117647,0.086275,-0.101961,-0.039216,21.568627,33.333333,9.803922,2,0,1
2,40,3,-4.235294,-7.058824,62.117647,0.086275,-0.086275,0.117647,33.333333,25.490196,13.72549,2,0,1
2,40,4,-2.823529,-7.058824,62.117647,0.086275,-0.14902,0.133333,37.254902,21.568627,5.882353,2,0,1
2,40,5,-2.823529,-5.647059,62.117647,0.086275,-0.101961,0.227451,21.568627,21.568627,5.882353,2,0,1
2,40,6,0,-5.647059,63.529412,0.070588,-0.117647,0.164706,33.333333,13.72549,5.882353,2,0,1
2,40,7,0,-4.235294,63.529412,0.039216,-0.117647,0.070588,17.647059,29.411765,1.960784,2,0,1
2,40,8,1.411765,-2.823529,63.529412,0.039216,-0.070588,0.164706,13.72549,33.333333,1.960784,2,0,1
2,40,9,1.411765,0,63.529412,0.007843,-0.070588,0.101961,5.882353,29.411765,5.882353,2,0,1
2,40,10,1.411765,0,63.529412,0.007843,-0.039216,0.101961,5.882353,25.490196,5.882353,2,0,1
2,40,11,1.411765,1.411765,63.529412,-0.007843,-0.039216,0.039216,9.803922,21.568627,1.960784,2,0,1
2,40,12,1.411765,0,63.529412,-0.023529,0.133333,0.4,1.960784,-33.333333,-1.960784,2,1,1
2,40,13,1.411765,0,63.529412,-0.023529,0.007843,-0.023529,-9.803922,9.803922,1.960784,2,1,1
2,40,14,1.411765,0,63.529412,-0.023529,-0.007843,-0.007843,-1.960784,-1.960784,-1.960784,2,1,1
2,40,15,1.411765,0,63.529412,0.007843,-0.007843,-0.023529,-1.960784,-1.960784,-1.960784,2,1,1
2,40,16,1.411765,0,63.529412,0.007843,-0.007843,-0.007843,-1.960784,-1.960784,-1.960784,2,1,1
2,40,17,1.411765,0,63.529412,0.039216,-0.101961,0.039216,-1.960784,-5.882353,-9.803922,2,1,1
2,40,18,1.411765,0,63.529412,-0.007843,-0.054902,-0.054902,-5.882353,-5.882353,-9.803922,2,1,1
2,40,19,1.411765,0,63.529412,0.023529,-0.054902,0.290196,9.803922,-13.72549,1.960784,2,1,1
2,40,20,1.411765,-2.823529,63.529412,0.023529,-0.14902,0.52549,17.647059,-29.411765,-13.72549,2,1,1
2,40,21,1.411765,-4.235294,62.117647,0.101961,-0.054902,0.478431,-13.72549,-41.176471,-13.72549,2,1,1
2,40,22,1.411765,-5.647059,62.117647,0.14902,-0.023529,0.290196,-9.803922,-45.098039,-17.647059,2,1,1
2,40,23,0,-7.058824,62.117647,0.211765,0.023529,0.258824,-41.176471,-41.176471,-5.882353,2,1,1
2,40,24,-2.823529,-8.470588,62.117647,0.227451,-0.039216,0.070588,-52.941176,-33.333333,-1.960784,2,1,1
2,40,25,-4.235294,-9.882353,62.117647,0.227451,-0.054902,-0.070588,-37.254902,-25.490196,-1.960784,2,1,1
2,40,26,-5.647059,-9.882353,62.117647,0.211765,0.007843,-0.086275,-45.098039,-21.568627,-1.960784,2,1,1
2,40,27,-7.058824,-11.294118,62.117647,0.164706,0.007843,-0.243137,-60.784314,-41.176471,5.882353,2,1,1
2,40,28,-8.470588,-12.705882,62.117647,0.117647,-0.023529,-0.509804,-29.411765,-33.333333,5.882353,2,1,1
2,40,29,-8.470588,-12.705882,62.117647,0.117647,-0.086275,-0.65098,-5.882353,-13.72549,1.960784,2,1,1
2,41,0,-9.882353,-12.705882,63.529412,0.117647,-0.054902,-0.478431,-29.411765,1.960784,9.803922,2,1,1
2,41,1,-9.882353,-14.117647,63.529412,0.070588,-0.086275,-0.619608,-25.490196,-21.568627,9.803922,2,1,1
2,41,2,-9.882353,-12.705882,63.529412,0.039216,-0.070588,-0.603922,25.490196,1.960784,-1.960784,2,1,1
2,41,3,-8.470588,-12.705882,63.529412,0.039216,-0.070588,-0.447059,9.803922,5.882353,1.960784,2,1,1
2,41,4,-8.470588,-12.705882,63.529412,0.039216,-0.039216,-0.290196,-1.960784,13.72549,9.803922,2,1,1
2,41,5,-7.058824,-11.294118,63.529412,0.039216,-0.101961,-0.180392,49.019608,9.803922,1.960784,2,1,1
2,41,6,-5.647059,-11.294118,64.941176,0.039216,-0.133333,-0.086275,37.254902,17.647059,1.960784,2,1,1
2,41,7,-5.647059,-9.882353,64.941176,0.054902,-0.117647,-0.007843,25.490196,21.568627,-5.882353,2,1,1
2,41,8,-4.235294,-8.470588,64.941176,0.054902,-0.054902,0.101961,37.254902,29.411765,-1.960784,2,1,1
2,41,9,-2.823529,-7.058824,64.941176,0.054902,-0.101961,0.196078,25.490196,37.254902,-1.960784,2,1,1
2,41,10,0,-7.058824,64.941176,0.054902,-0.070588,0.243137,29.411765,33.333333,-5.882353,2,1,1
2,41,11,0,-5.647059,64.941176,0.054902,-0.086275,0.227451,17.647059,25.490196,-1.960784,2,1,1
2,41,12,0,-4.235294,63.529412,0.039216,-0.070588,0.180392,21.568627,17.647059,-5.882353,2,1,1
2,41,13,1.411765,-4.235294,63.529412,0.023529,-0.023529,0.086275,21.568627,17.647059,-9.803922,2,1,1
2,41,14,1.411765,-2.823529,63.529412,0.007843,0.007843,0.023529,9.803922,21.568627,-5.882353,2,0,1
2,41,15,1.411765,-2.823529,63.529412,-0.007843,0.023529,-0.023529,-1.960784,29.411765,-1.960784,2,0,1
2,41,16,1.411765,0,63.529412,-0.007843,0.023529,0.023529,1.960784,29.411765,1.960784,2,0,1
2,41,17,-2.823529,-11.294118,66.352941,1.984314,-1.984314,0.964706,-135.294118,-319.607843,52.941176,2,0,1
2,41,18,-2.823529,-11.294118,66.352941,-0.117647,0.101961,-0.023529,-1.960784,-25.490196,1.960784,2,0,1
2,41,19,-2.823529,-11.294118,66.352941,-0.101961,-0.007843,0.541176,-5.882353,-13.72549,-1.960784,2,0,1
2,41,20,-2.823529,-11.294118,66.352941,-0.039216,0.007843,0.070588,-1.960784,-5.882353,-1.960784,2,0,1
2,41,21,-2.823529,-11.294118,66.352941,-0.086275,-0.007843,0.039216,-1.960784,-5.882353,-1.960784,2,0,1
2,41,22,-2.823529,-11.294118,66.352941,-0.101961,-0.117647,-0.039216,-5.882353,-1.960784,-5.882353,2,0,1
2,41,23,-4.235294,-11.294118,66.352941,0.039216,0.101961,0.14902,-25.490196,-9.803922,1.960784,2,0,1
2,41,24,-5.647059,-11.294118,66.352941,0.070588,-0.023529,0.211765,-45.098039,-17.647059,17.647059,2,0,1
2,41,25,-5.647059,-11.294118,66.352941,0.101961,-0.023529,0.541176,1.960784,-13.72549,1.960784,2,0,1
2,41,26,-4.235294,-12.705882,66.352941,0.101961,0.039216,0.321569,9.803922,-49.019608,5.882353,2,0,1
2,41,27,-4.235294,-14.117647,67.764706,0.101961,0.039216,0.101961,-9.803922,-41.176471,9.803922,2,0,1
2,41,28,-5.647059,-15.529412,67.764706,0.101961,0.070588,-0.007843,-29.411765,-21.568627,13.72549,2,0,1
2,41,29,-7.058824,-15.529412,69.176471,0.101961,0.070588,-0.007843,-37.254902,-29.411765,21.568627,2,0,1
2,41,30,-7.058824,-16.941176,69.176471,0.070588,0.023529,-0.133333,-25.490196,-37.254902,21.568627,2,1,1
2,42,0,-7.058824,-16.941176,70.588235,0.039216,-0.007843,-0.321569,-9.803922,-29.411765,21.568627,2,1,1
2,42,1,-7.058824,-16.941176,72,0.007843,-0.023529,-0.415686,-9.803922,-17.647059,25.490196,2,1,1
2,42,2,-7.058824,-16.941176,72,0.007843,-0.070588,-0.447059,-9.803922,-5.882353,25.490196,2,1,1
2,42,3,-7.058824,-16.941176,73.411765,0.007843,-0.117647,-0.431373,1.960784,5.882353,17.647059,2,1,1
2,42,4,-7.058824,-15.529412,73.411765,-0.007843,-0.117647,-0.384314,9.803922,9.803922,13.72549,2,1,1
2,42,5,-7.058824,-15.529412,73.411765,0.007843,-0.117647,-0.290196,9.803922,17.647059,13.72549,2,1,1
2,42,6,-5.647059,-14.117647,74.823529,0.007843,-0.14902,-0.180392,29.411765,25.490196,13.72549,2,1,1
2,42,7,-5.647059,-12.705882,74.823529,0.039216,-0.211765,-0.023529,25.490196,17.647059,9.803922,2,1,1
2,42,8,-4.235294,-12.705882,74.823529,0.023529,-0.164706,-0.039216,17.647059,13.72549,1.960784,2,1,1
2,42,9,-4.235294,-11.294118,74.823529,0.039216,-0.133333,0.054902,17.647059,13.72549,1.960784,2,1,1
2,42,10,-4.235294,-11.294118,74.823529,0.039216,-0.117647,0.117647,9.803922,5.882353,1.960784,2,1,1
2,42,11,-2.823529,-11.294118,74.823529,0.054902,-0.101961,0.054902,25.490196,1.960784,-5.882353,2,1,1
2,42,12,-2.823529,-9.882353,74.823529,0.039216,-0.054902,0.023529,25.490196,17.647059,-9.803922,2,1,1
2,42,13,0,-9.882353,74.823529,0.039216,-0.023529,0.117647,5.882353,17.647059,-5.882353,2,1,1
2,42,14,0,-8.470588,74.823529,0.023529,-0.007843,0.023529,5.882353,21.568627,-5.882353,2,1,1
2,42,15,0,-8.470588,74.823529,0.023529,-0.007843,0.086275,5.882353,17.647059,-5.882353,2,1,1
2,42,16,0,-7.058824,74.823529,0.023529,0.023529,-0.007843,-1.960784,17.647059,-1.960784,2,1,1
2,42,17,-5.647059,-7.058824,74.823529,1.952941,-0.745098,0.996078,-9.803922,-41.176471,1.960784,2,1,1
2,42,18,-5.647059,-7.058824,74.823529,0.14902,-0.164706,-0.070588,-1.960784,5.882353,-1.960784,2,1,1
2,42,19,-5.647059,-7.058824,74.823529,0.023529,-0.039216,-0.023529,-1.960784,1.960784,-1.960784,2,1,1
2,42,20,-5.647059,-7.058824,74.823529,0.070588,0.007843,-0.086275,-1.960784,-1.960784,-1.960784,2,1,1
2,42,21,-5.647059,-7.058824,74.823529,0.007843,-0.007843,-0.023529,-1.960784,-1.960784,-1.960784,2,1,1
2,42,22,-5.647059,-7.058824,74.823529,0.023529,-0.007843,-0.007843,-1.960784,-5.882353,-5.882353,2,1,1
2,42,23,-5.647059,-7.058824,74.823529,-0.023529,0.023529,0.086275,-13.72549,-9.803922,1.960784,2,1,1
2,42,24,-5.647059,-7.058824,74.823529,-0.007843,-0.086275,0.243137,1.960784,-1.960784,-1.960784,2,1,1
2,42,25,-5.647059,-7.058824,74.823529,0.007843,-0.054902,0.368627,-13.72549,-17.647059,-1.960784,2,1,1
2,42,26,-5.647059,-7.058824,74.823529,-0.007843,-0.133333,0.211765,-17.647059,-25.490196,-1.960784,2,1,1
2,42,27,-7.058824,-8.470588,74.823529,0.039216,-0.164706,0.227451,-29.411765,-9.803922,-5.882353,2,1,1
2,42,28,-8.470588,-8.470588,74.823529,0.086275,-0.196078,0.196078,-41.176471,-25.490196,-9.803922,2,1,1
2,42,29,-9.882353,-9.882353,73.411765,0.054902,-0.211765,0.007843,-25.490196,-33.333333,-17.647059,2,1,1
2,43,0,-9.882353,-9.882353,73.411765,0.054902,-0.180392,-0.133333,-29.411765,-17.647059,-21.568627,2,1,1
2,43,1,-11.294118,-9.882353,72,0.023529,-0.180392,-0.211765,-29.411765,-9.803922,-29.411765,2,1,1
2,43,2,-12.705882,-9.882353,70.588235,0.023529,-0.101961,-0.305882,-25.490196,-5.882353,-33.333333,2,1,1
2,43,3,-12.705882,-9.882353,69.176471,0.007843,-0.054902,-0.368627,-9.803922,-1.960784,-33.333333,2,1,1
2,43,4,-12.705882,-9.882353,69.176471,0.039216,-0.133333,-0.384314,-17.647059,-13.72549,-33.333333,2,1,1
2,43,5,-12.705882,-11.294118,67.764706,0.023529,-0.039216,-0.478431,5.882353,-17.647059,-41.176471,2,1,1
2,43,6,-11.294118,-11.294118,66.352941,0.039216,-0.007843,-0.431373,13.72549,-9.803922,-37.254902,2,1,1
2,43,7,-11.294118,-11.294118,64.941176,0.070588,0.039216,-0.290196,-13.72549,-1.960784,-29.411765,2,1,1
2,43,8,-11.294118,-11.294118,64.941176,0.070588,0.054902,-0.305882,1.960784,1.960784,-21.568627,2,1,1
2,43,9,-9.882353,-9.882353,64.941176,0.101961,0.023529,-0.086275,13.72549,25.490196,-13.72549,2,1,1
2,43,10,-9.882353,-8.470588,63.529412,0.101961,-0.007843,0.039216,13.72549,21.568627,-13.72549,2,1,1
2,43,11,-8.470588,-8.470588,63.529412,0.117647,0.023529,0.133333,9.803922,17.647059,-5.882353,2,1,1
2,43,12,-8.470588,-8.470588,63.529412,0.101961,-0.039216,0.180392,29.411765,5.882353,-5.882353,2,1,1
2,43,13,-7.058824,-8.470588,63.529412,0.070588,-0.023529,0.086275,21.568627,5.882353,-13.72549,2,1,1
2,43,14,-7.058824,-7.058824,63.529412,0.070588,0.039216,0.039216,9.803922,17.647059,-5.882353,2,1,1
2,43,15,-5.647059,-5.647059,63.529412,0.070588,0.023529,0.14902,9.803922,29.411765,-1.960784,2,1,1
2,43,16,-5.647059,-5.647059,63.529412,0.039216,-0.023529,0.054902,5.882353,17.647059,-1.960784,2,1,1
2,43,17,-5.647059,-4.235294,63.529412,0.023529,-0.023529,-0.023529,17.647059,37.254902,-1.960784,2,1,1
2,43,18,-4.235294,-2.823529,63.529412,0.007843,-0.023529,0.039216,13.72549,33.333333,-1.960784,2,1,1
2,43,19,-4.235294,-2.823529,62.117647,0.494118,0.023529,-0.666667,-1.960784,25.490196,-13.72549,2,1,1
2,43,20,-4.235294,-2.823529,63.529412,-0.007843,0.023529,-0.007843,-1.960784,5.882353,-1.960784,2,1,1
2,43,21,-4.235294,-2.823529,63.529412,0.007843,-0.007843,-0.007843,-1.960784,-1.960784,-1.960784,2,1,1
2,43,22,-4.235294,-2.823529,63.529412,-0.039216,0.007843,0.023529,-1.960784,-1.960784,-1.960784,2,1,1
2,43,23,-4.235294,-2.823529,63.529412,-0.023529,-0.007843,0.007843,-1.960784,-1.960784,-1.960784,2,1,1
2,43,24,-4.235294,-2.823529,63.529412,-0.007843,-0.007843,-0.007843,-1.960784,-1.960784,-1.960784,2,1,1
2,43,25,-4.235294,-2.823529,63.529412,-0.007843,-0.007843,0.007843,-1.960784,-1.960784,-1.960784,2,1,1
2,43,26,-4.235294,-2.823529,63.529412,-0.007843,-0.007843,-0.007843,-1.960784,-1.960784,-1.960784,2,1,1
2,43,27,-4.235294,-2.823529,63.529412,-0.007843,-0.007843,0.007843,-1.960784,-1.960784,-1.960784,2,1,1
2,43,28,-4.235294,-2.823529,63.529412,0.007843,-0.007843,-0.007843,-1.960784,-5.882353,-1.960784,2,1,1
2,43,29,-4.235294,-2.823529,62.117647,0.007843,0.054902,0.117647,-21.568627,-1.960784,-1.960784,2,1,1
2,44,0,-5.647059,-4.235294,63.529412,0.023529,-0.117647,0.196078,-33.333333,-17.647059,1.960784,2,1,1
2,44,1,-5.647059,-4.235294,63.529412,0.054902,-0.086275,0.27451,-13.72549,-1.960784,1.960784,2,1,1
2,44,2,-7.058824,-4.235294,63.529412,0.054902,-0.14902,0.27451,-5.882353,-21.568627,1.960784,2,1,1
2,44,3,-7.058824,-5.647059,63.529412,0.054902,-0.180392,0.101961,-9.803922,-29.411765,-5.882353,2,2,1
2,44,4,-7.058824,-5.647059,62.117647,0.054902,-0.164706,0.023529,-13.72549,-21.568627,-13.72549,2,2,1
2,44,5,-8.470588,-7.058824,62.117647,0.054902,-0.164706,-0.054902,-21.568627,-21.568627,-13.72549,2,2,1
2,44,6,-8.470588,-7.058824,62.117647,0.039216,-0.164706,-0.117647,-21.568627,-21.568627,-21.568627,2,2,1
2,44,7,-8.470588,-7.058824,60.705882,0.023529,-0.133333,-0.196078,-21.568627,-17.647059,-29.411765,2,2,1
2,44,8,-9.882353,-8.470588,59.294118,0.039216,-0.117647,-0.211765,-13.72549,-21.568627,-33.333333,2,2,1
2,44,9,-9.882353,-8.470588,57.882353,0.023529,-0.101961,-0.305882,-13.72549,-17.647059,-37.254902,2,2,1
2,44,10,-8.470588,-8.470588,57.882353,0.039216,0.007843,-0.258824,17.647059,-21.568627,-41.176471,2,2,1
2,44,11,-8.470588,-9.882353,56.470588,0.039216,0.070588,-0.321569,25.490196,-21.568627,-37.254902,2,2,1
2,44,12,-7.058824,-9.882353,55.058824,0.054902,0.070588,-0.337255,9.803922,-1.960784,-33.333333,2,2,1
2,44,13,-7.058824,-8.470588,55.058824,0.054902,0.117647,-0.290196,-13.72549,25.490196,-21.568627,2,2,1
2,44,14,-7.058824,-7.058824,53.647059,0.086275,0.086275,-0.117647,-21.568627,33.333333,-9.803922,2,2,1
2,44,15,-7.058824,-7.058824,53.647059,0.070588,-0.023529,-0.101961,9.803922,29.411765,-9.803922,2,2,1
2,44,16,-7.058824,-5.647059,53.647059,0.070588,0.039216,-0.007843,17.647059,37.254902,-9.803922,2,2,1
2,44,17,-7.058824,-4.235294,53.647059,0.070588,-0.039216,0.039216,1.960784,37.254902,-1.960784,2,2,1
2,44,18,-5.647059,-2.823529,53.647059,0.039216,-0.007843,0.070588,9.803922,37.254902,-5.882353,2,2,1
2,44,19,-5.647059,0,53.647059,0.023529,-0.007843,0.14902,9.803922,33.333333,1.960784,2,1,1
2,44,20,-5.647059,0,53.647059,0.007843,-0.007843,0.117647,5.882353,25.490196,1.960784,2,1,1
2,44,21,-4.235294,1.411765,53.647059,-0.023529,0.007843,0.054902,5.882353,25.490196,5.882353,2,1,1
2,44,22,1.411765,-14.117647,50.823529,1.952941,0.619608,0.996078,49.019608,409.803922,-84.313725,2,1,1
2,44,23,1.411765,-12.705882,50.823529,-0.054902,0.133333,-0.572549,1.960784,17.647059,-13.72549,2,1,1
2,44,24,1.411765,-12.705882,50.823529,0.164706,-0.023529,-0.14902,-1.960784,5.882353,-1.960784,2,1,1
2,44,25,1.411765,-12.705882,50.823529,0.054902,-0.007843,-0.039216,-1.960784,1.960784,-1.960784,2,1,1
2,44,26,1.411765,-12.705882,50.823529,0.023529,0.007843,-0.023529,-1.960784,-1.960784,-1.960784,2,1,1
2,44,27,1.411765,-12.705882,50.823529,-0.007843,-0.007843,-0.007843,-1.960784,-1.960784,-1.960784,2,1,1
2,44,28,1.411765,-12.705882,50.823529,-0.039216,-0.007843,0.007843,-1.960784,-1.960784,-1.960784,2,1,1
2,44,29,1.411765,-11.294118,50.823529,-0.023529,-0.007843,-0.007843,-1.960784,-1.960784,-1.960784,2,1,1
2,45,0,1.411765,-11.294118,50.823529,-0.023529,-0.007843,0.007843,-1.960784,-1.960784,-1.960784,2,1,1
2,45,1,1.411765,-11.294118,50.823529,-0.007843,-0.007843,-0.007843,-1.960784,-1.960784,-1.960784,2,1,1
2,45,2,1.411765,-11.294118,50.823529,-0.007843,-0.007843,-0.007843,-1.960784,-1.960784,-1.960784,2,1,1
2,45,3,1.411765,-11.294118,50.823529,-0.007843,-0.007843,-0.023529,-1.960784,-1.960784,-1.960784,2,1,1
2,45,4,1.411765,-11.294118,50.823529,-0.023529,-0.007843,0.007843,-1.960784,-1.960784,-1.960784,2,1,1
2,45,5,1.411765,-11.294118,50.823529,-0.007843,-0.007843,0.023529,-1.960784,-1.960784,-1.960784,2,0,1
2,45,6,1.411765,-11.294118,50.823529,0.196078,0.007843,-0.070588,-5.882353,-5.882353,-5.882353,2,0,1
2,45,7,1.411765,-9.882353,50.823529,-0.086275,0.070588,0.117647,-17.647059,29.411765,13.72549,2,0,1
2,45,8,1.411765,-9.882353,52.235294,-0.117647,-0.101961,0.447059,9.803922,-5.882353,1.960784,2,0,1
2,45,9,1.411765,-11.294118,52.235294,-0.023529,0.117647,0.384314,9.803922,-64.705882,1.960784,2,0,1
2,45,10,2.823529,-14.117647,52.235294,-0.023529,0.14902,0.133333,13.72549,-80.392157,5.882353,2,0,1
2,45,11,2.823529,-15.529412,53.647059,0.023529,0.337255,-0.054902,13.72549,-64.705882,41.176471,2,0,1
2,45,12,2.823529,-16.941176,56.470588,-0.054902,0.007843,-0.352941,-1.960784,-37.254902,76.470588,2,0,1
2,45,13,2.823529,-16.941176,56.470588,-0.023529,0.023529,-0.290196,1.960784,-5.882353,33.333333,2,0,1
2,45,14,2.823529,-16.941176,59.294118,0.070588,0.243137,-0.305882,-5.882353,-13.72549,64.705882,2,0,1
2,45,15,2.823529,-16.941176,60.705882,0.070588,-0.070588,-0.321569,9.803922,-21.568627,60.784314,2,0,1
2,45,16,4.235294,-16.941176,62.117647,0.117647,-0.117647,-0.4,41.176471,9.803922,25.490196,2,0,1
2,45,17,4.235294,-14.117647,63.529412,0.039216,-0.101961,-0.321569,13.72549,49.019608,17.647059,2,0,1
2,45,18,4.235294,-12.705882,63.529412,0.086275,-0.133333,-0.070588,-21.568627,49.019608,25.490196,2,0,1
2,45,19,2.823529,-11.294118,64.941176,0.086275,-0.14902,0.023529,-17.647059,37.254902,17.647059,2,0,1
2,45,20,2.823529,-9.882353,64.941176,0.070588,-0.14902,0.101961,5.882353,29.411765,5.882353,2,0,1
2,45,21,2.823529,-9.882353,64.941176,0.054902,-0.086275,0.101961,13.72549,9.803922,-1.960784,2,0,1
2,45,22,2.823529,-9.882353,64.941176,0.054902,-0.117647,0.070588,-1.960784,5.882353,1.960784,2,0,1
2,45,23,2.823529,-8.470588,64.941176,0.023529,-0.039216,-0.007843,-9.803922,17.647059,-1.960784,2,0,1
2,45,24,2.823529,-8.470588,63.529412,-0.070588,-0.117647,0.321569,-1.960784,5.882353,-25.490196,2,0,1
2,45,25,2.823529,-8.470588,63.529412,0.039216,0.007843,-0.086275,-1.960784,1.960784,-1.960784,2,0,1
2,45,26,2.823529,-8.470588,63.529412,0.101961,-0.007843,-0.117647,-1.960784,-1.960784,-1.960784,2,0,1
2,45,27,2.823529,-8.470588,63.529412,0.007843,0.007843,-0.023529,-1.960784,-1.960784,-1.960784,2,0,1
2,45,28,2.823529,-8.470588,63.529412,-0.007843,-0.007843,-0.007843,-1.960784,-1.960784,-1.960784,2,0,1
2,45,29,2.823529,-8.470588,63.529412,-0.007843,-0.007843,-0.007843,-1.960784,-1.960784,-1.960784,2,0,1
2,45,30,2.823529,-8.470588,63.529412,-0.007843,-0.007843,-0.007843,-1.960784,-1.960784,-1.960784,2,0,1
2,46,0,2.823529,-7.058824,63.529412,-0.039216,-0.007843,0.007843,-1.960784,-1.960784,-1.960784,2,0,1
2,46,1,2.823529,-7.058824,63.529412,-0.007843,-0.007843,-0.007843,-1.960784,-1.960784,-1.960784,2,0,1
2,46,2,2.823529,-7.058824,63.529412,-0.007843,-0.007843,-0.023529,-1.960784,-1.960784,-1.960784,2,0,1
2,46,3,2.823529,-7.058824,63.529412,0.007843,-0.007843,-0.023529,-1.960784,-1.960784,-1.960784,2,0,1
2,46,4,2.823529,-7.058824,64.941176,0.101961,0.180392,0.086275,-1.960784,-1.960784,21.568627,2,0,1
2,46,5,1.411765,-7.058824,64.941176,-0.101961,-0.086275,0.054902,-41.176471,-1.960784,21.568627,2,0,1
2,46,6,0,-8.470588,66.352941,-0.117647,0.007843,0.243137,-37.254902,-33.333333,37.254902,2,1,0
2,46,7,-2.823529,-8.470588,67.764706,0.007843,0.133333,0.133333,-25.490196,-17.647059,41.176471,2,1,0
2,46,8,0,-8.470588,70.588235,-0.023529,0.27451,0.070588,13.72549,-1.960784,60.784314,2,1,0
2,46,9,0,-8.470588,73.411765,-0.070588,0.070588,0.023529,9.803922,-21.568627,107.843137,2,1,0
2,46,10,1.411765,-9.882353,76.235294,-0.117647,-0.070588,-0.101961,21.568627,-37.254902,80.392157,2,1,0
2,46,11,1.411765,-9.882353,80.470588,-0.070588,0.14902,-0.133333,1.960784,-29.411765,119.607843,2,1,0
2,46,12,1.411765,-11.294118,84.705882,0.007843,-0.117647,-0.14902,-9.803922,-25.490196,123.529412,2,1,0
2,46,13,1.411765,-11.294118,87.529412,-0.039216,-0.133333,-0.243137,13.72549,1.960784,84.313725,2,1,0
2,46,14,1.411765,-9.882353,90.352941,-0.039216,-0.101961,-0.211765,13.72549,29.411765,76.470588,2,1,0
2,46,15,1.411765,-8.470588,93.176471,-0.023529,-0.117647,-0.133333,-9.803922,41.176471,88.235294,2,1,0
2,46,16,0,-7.058824,97.411765,-0.007843,-0.133333,-0.054902,-21.568627,25.490196,103.921569,2,1,0
2,46,17,0,-7.058824,100.235294,-0.023529,-0.227451,-0.039216,-5.882353,5.882353,80.392157,2,1,0
2,46,18,0,-5.647059,100.235294,-0.007843,-0.27451,-0.054902,17.647059,1.960784,25.490196,2,1,0
2,46,19,1.411765,-5.647059,100.235294,-0.039216,-0.164706,-0.007843,21.568627,5.882353,1.960784,2,1,0
2,46,20,1.411765,-5.647059,101.647059,-0.086275,-0.117647,-0.007843,9.803922,5.882353,13.72549,2,1,0
2,46,21,1.411765,-4.235294,101.647059,-0.039216,-0.14902,-0.023529,-1.960784,13.72549,9.803922,2,1,0
2,46,22,1.411765,-9.882353,100.235294,1.984314,-0.211765,0.964706,1.960784,-166.666667,-41.176471,2,1,0
2,46,23,4.235294,-15.529412,101.647059,-0.619608,0.023529,-0.415686,96.078431,-213.72549,33.333333,2,1,0
2,46,24,4.235294,-15.529412,101.647059,-0.070588,-0.070588,0.039216,1.960784,-17.647059,5.882353,2,1,0
2,46,25,4.235294,-15.529412,101.647059,0.023529,-0.007843,-0.039216,-1.960784,-1.960784,-1.960784,2,1,0
2,46,26,4.235294,-14.117647,101.647059,0.023529,-0.007843,-0.023529,-1.960784,-1.960784,-1.960784,2,1,0
2,46,27,4.235294,-14.117647,101.647059,-0.007843,-0.007843,-0.007843,-1.960784,-1.960784,-1.960784,2,1,0
2,46,28,4.235294,-14.117647,101.647059,0.007843,-0.007843,-0.007843,-1.960784,-1.960784,-1.960784,2,1,0
2,46,29,4.235294,-14.117647,101.647059,-0.023529,-0.007843,0.007843,-1.960784,-5.882353,-1.960784,2,1,0
2,47,0,2.823529,-14.117647,101.647059,0.039216,-0.007843,-0.086275,-1.960784,5.882353,-1.960784,2,1,0
2,47,1,2.823529,-14.117647,101.647059,0.007843,0.007843,0.007843,-1.960784,-9.803922,-1.960784,2,1,0
2,47,2,2.823529,-14.117647,101.647059,-0.007843,-0.007843,0.007843,-1.960784,-1.960784,-1.960784,2,1,0
2,47,3,2.823529,-12.705882,101.647059,-0.007843,-0.007843,0.007843,-1.960784,-1.960784,-1.960784,2,1,0
2,47,4,2.823529,-12.705882,101.647059,-0.023529,0.007843,0.007843,-1.960784,-1.960784,-1.960784,2,1,0
2,47,5,2.823529,-12.705882,101.647059,-0.023529,-0.023529,-0.007843,-1.960784,-1.960784,-1.960784,2,1,0
2,47,6,4.235294,-11.294118,101.647059,-0.007843,-0.101961,-0.023529,21.568627,25.490196,9.803922,2,1,0
2,47,7,1.411765,-8.470588,103.058824,-0.180392,0.039216,0.384314,-64.705882,88.235294,37.254902,2,1,0
2,47,8,0,-7.058824,105.882353,-0.086275,0.054902,0.4,-60.784314,37.254902,68.627451,2,1,0
2,47,9,-2.823529,-7.058824,107.294118,-0.070588,-0.023529,0.290196,-45.098039,-25.490196,49.019608,2,1,0
2,47,10,-4.235294,-8.470588,110.117647,-0.023529,0.101961,0.054902,-52.941176,-49.019608,68.627451,2,1,0
2,47,11,-5.647059,-9.882353,112.941176,-0.101961,0.070588,-0.117647,-45.098039,-56.862745,92.156863,2,1,0
2,47,12,-7.058824,-11.294118,115.764706,-0.133333,0.054902,-0.337255,-41.176471,-49.019608,100,2,1,0
2,47,13,-7.058824,-11.294118,120,-0.133333,0.023529,-0.462745,-29.411765,-9.803922,96.078431,2,1,0
2,47,14,-8.470588,-9.882353,122.823529,-0.101961,-0.007843,-0.478431,-13.72549,41.176471,88.235294,2,1,0
2,47,15,-8.470588,-7.058824,127.058824,-0.133333,0.039216,-0.305882,-5.882353,60.784314,115.686275,2,1,0
2,47,16,-7.058824,-5.647059,129.882353,-0.164706,-0.211765,-0.14902,9.803922,29.411765,107.843137,2,1,0
2,47,17,-7.058824,-5.647059,132.705882,-0.180392,-0.321569,-0.117647,17.647059,5.882353,52.941176,2,1,0
2,47,18,-7.058824,-5.647059,132.705882,-0.258824,-0.243137,0.007843,29.411765,-25.490196,37.254902,2,1,0
2,47,19,-5.647059,-7.058824,132.705882,-0.211765,-0.321569,-0.023529,25.490196,-41.176471,-1.960784,2,1,0
2,47,20,-5.647059,-8.470588,132.705882,-0.196078,-0.258824,0.133333,29.411765,-72.54902,-21.568627,2,1,0
2,47,21,-4.235294,-11.294118,132.705882,-0.007843,-0.14902,0.023529,29.411765,-96.078431,1.960784,2,1,0
2,47,22,2.823529,-21.176471,134.117647,0.870588,-0.823529,0.886275,166.666667,-272.54902,37.254902,2,1,0
2,47,23,0,-21.176471,134.117647,-0.4,0.007843,0.964706,-60.784314,-41.176471,9.803922,2,1,0
2,47,24,1.411765,-21.176471,135.529412,0.101961,0.070588,-0.415686,1.960784,-17.647059,13.72549,2,0,0
2,47,25,2.823529,-18.352941,135.529412,0.478431,-0.462745,0.27451,92.156863,100,-5.882353,2,0,0
2,47,26,4.235294,-18.352941,135.529412,0.070588,0.039216,-0.039216,45.098039,13.72549,33.333333,2,0,0
2,47,27,4.235294,-16.941176,136.941176,-0.117647,-0.4,-0.321569,9.803922,1.960784,1.960784,2,0,0
2,47,28,4.235294,-16.941176,136.941176,-0.007843,-0.007843,-0.007843,-1.960784,-1.960784,-1.960784,2,0,0
2,47,29,4.235294,-16.941176,136.941176,0.007843,-0.007843,-0.007843,-1.960784,-1.960784,-1.960784,2,0,0
2,48,0,4.235294,-16.941176,136.941176,-0.007843,-0.007843,-0.007843,-1.960784,-1.960784,-1.960784,2,0,0
2,48,1,4.235294,-15.529412,136.941176,-0.007843,-0.007843,-0.007843,-1.960784,-1.960784,-1.960784,2,0,0
2,48,2,4.235294,-15.529412,136.941176,-0.007843,-0.007843,0.007843,-1.960784,-1.960784,-1.960784,2,0,0
2,48,3,4.235294,-15.529412,136.941176,0.007843,-0.007843,-0.007843,-1.960784,-1.960784,-1.960784,2,0,0
2,48,4,4.235294,-15.529412,138.352941,0.023529,0.352941,-0.007843,9.803922,5.882353,49.019608,2,0,0
2,48,5,5.647059,-14.117647,141.176471,-0.054902,-0.039216,0.133333,13.72549,29.411765,76.470588,2,0,0
2,48,6,4.235294,-11.294118,142.588235,-0.086275,-0.007843,0.14902,-5.882353,60.784314,41.176471,2,0,0
2,48,7,4.235294,-9.882353,144,-0.070588,0.086275,0.211765,-33.333333,33.333333,64.705882,2,0,0
2,48,8,2.823529,-8.470588,148.235294,-0.180392,0.227451,0.023529,-41.176471,45.098039,131.372549,2,0,0
2,48,9,2.823529,-4.235294,153.882353,-0.14902,0.054902,-0.117647,-13.72549,88.235294,174.509804,2,0,0
2,48,10,1.411765,-2.823529,158.117647,-0.196078,-0.086275,0.039216,-17.647059,72.54902,107.843137,2,1,0
2,48,11,1.411765,0,160.941176,-0.196078,0.070588,-0.007843,-29.411765,17.647059,92.156863,2,1,0
2,48,12,0,0,165.176471,-0.227451,0.14902,-0.211765,-9.803922,-1.960784,107.843137,2,1,0
2,48,13,1.411765,0,168,-0.196078,0.023529,-0.196078,17.647059,-9.803922,84.313725,2,1,0
2,48,14,1.411765,0,169.411765,-0.243137,0.039216,-0.101961,9.803922,-29.411765,56.862745,2,1,0
2,48,15,1.411765,-2.823529,170.823529,-0.290196,0.007843,-0.070588,5.882353,-45.098039,52.941176,2,1,0
2,48,16,1.411765,-4.235294,173.647059,-0.211765,-0.086275,-0.070588,-5.882353,-52.941176,49.019608,2,1,0
2,48,17,1.411765,-5.647059,175.058824,-0.27451,-0.086275,-0.101961,-17.647059,-49.019608,45.098039,2,1,0
2,48,18,0,-5.647059,175.058824,-0.14902,-0.054902,-0.164706,-17.647059,-25.490196,29.411765,2,1,0
2,48,19,0,-5.647059,177.882353,-0.117647,0.023529,-0.086275,-5.882353,-13.72549,49.019608,2,1,0
2,48,20,0,-7.058824,179.294118,-0.14902,-0.023529,-0.054902,1.960784,-21.568627,56.862745,2,1,0
2,48,21,0,-7.058824,179.294118,-0.117647,-0.086275,0.007843,-1.960784,-37.254902,33.333333,2,1,0
2,48,22,0,-8.470588,-179.294118,-0.133333,-0.039216,0.023529,-9.803922,-52.941176,33.333333,2,1,0
2,48,23,0,-9.882353,-179.294118,-0.101961,-0.023529,-0.054902,1.960784,-37.254902,21.568627,2,1,0
2,48,24,0,-16.941176,-177.882353,1.984314,0.698039,0.964706,13.72549,-252.941176,45.098039,2,1,0
2,48,25,0,-15.529412,-176.470588,-0.572549,0.337255,0.619608,-9.803922,-5.882353,37.254902,2,1,0
2,48,26,0,-15.529412,-175.058824,-0.054902,-0.023529,0.086275,-1.960784,-5.882353,13.72549,2,1,1
2,48,27,1.411765,-15.529412,-175.058824,0.070588,-0.039216,-0.023529,13.72549,1.960784,13.72549,2,1,1
2,48,28,0,-16.941176,-175.058824,1.011765,-0.368627,-0.760784,1.960784,-17.647059,5.882353,2,1,1
2,48,29,0,-16.941176,-175.058824,0.007843,-0.023529,-0.039216,-1.960784,-5.882353,-1.960784,2,1,1
2,48,30,0,-16.941176,-175.058824,-0.023529,-0.007843,0.007843,-1.960784,-1.960784,-1.960784,2,1,1
2,49,0,0,-16.941176,-175.058824,-0.007843,-0.007843,-0.023529,-1.960784,-1.960784,-1.960784,2,1,1
2,49,1,0,-15.529412,-175.058824,-0.007843,-0.007843,-0.007843,-1.960784,-1.960784,-1.960784,2,1,1
2,49,2,0,-15.529412,-175.058824,-0.007843,-0.007843,-0.007843,-1.960784,-1.960784,-1.960784,2,1,1
2,49,3,0,-15.529412,-175.058824,-0.007843,-0.007843,-0.007843,-1.960784,-1.960784,-1.960784,2,1,1
2,49,4,0,-15.529412,-175.058824,-0.007843,-0.007843,-0.007843,-1.960784,-1.960784,-1.960784,2,1,1
2,49,5,0,-15.529412,-175.058824,-0.007843,-0.007843,-0.007843,-1.960784,-1.960784,-1.960784,2,1,1
2,49,6,0,-14.117647,-175.058824,-0.007843,-0.007843,-0.007843,-1.960784,-1.960784,-1.960784,2,1,1
2,49,7,0,-14.117647,-175.058824,-0.007843,-0.007843,-0.007843,-1.960784,-1.960784,-1.960784,2,1,1
2,49,8,0,-14.117647,-175.058824,-0.007843,-0.007843,-0.007843,-1.960784,-1.960784,-1.960784,2,1,1
2,49,9,0,-14.117647,-175.058824,-0.007843,-0.007843,-0.007843,-1.960784,-1.960784,-1.960784,2,1,1
2,49,10,0,-14.117647,-175.058824,-0.133333,-0.039216,0.27451,5.882353,-37.254902,-1.960784,2,1,1
2,49,11,1.411765,-14.117647,-172.235294,-0.164706,0.211765,-0.243137,1.960784,-1.960784,80.392157,2,1,1
2,49,12,1.411765,-14.117647,-169.411765,0.117647,-0.086275,-0.039216,-1.960784,-5.882353,84.313725,2,1,1
2,49,13,1.411765,-14.117647,-168,0.258824,0.180392,0.101961,17.647059,9.803922,49.019608,2,1,1
2,49,14,1.411765,-14.117647,-163.764706,0.101961,0.039216,0.196078,-9.803922,-5.882353,96.078431,2,1,1
2,49,15,0,-12.705882,-162.352941,0.117647,-0.007843,0.305882,-33.333333,17.647059,64.705882,2,1,1
2,49,16,-2.823529,-12.705882,-159.529412,0.054902,0.039216,0.14902,-37.254902,13.72549,68.627451,2,1,1
2,49,17,-2.823529,-11.294118,-158.117647,0.070588,-0.007843,0.007843,-25.490196,33.333333,52.941176,2,1,1
2,49,18,0,-9.882353,-155.294118,-0.039216,0.164706,-0.070588,21.568627,21.568627,60.784314,2,1,1
2,49,19,1.411765,-11.294118,-149.647059,-0.039216,0.133333,-0.227451,33.333333,-21.568627,178.431373,2,1,1
2,49,20,1.411765,-9.882353,-145.411765,-0.086275,-0.227451,-0.258824,45.098039,-5.882353,147.058824,2,1,1
2,49,21,2.823529,-11.294118,-141.176471,-0.070588,-0.007843,-0.180392,45.098039,-49.019608,127.45098,2,1,1
2,49,22,4.235294,-12.705882,-136.941176,-0.14902,-0.164706,-0.337255,13.72549,-60.784314,131.372549,2,1,1
2,49,23,4.235294,-14.117647,-134.117647,-0.117647,-0.023529,-0.258824,25.490196,-29.411765,72.54902,2,1,1
2,49,24,4.235294,-14.117647,-131.294118,-0.101961,0.007843,-0.14902,-5.882353,-21.568627,68.627451,2,1,1
2,49,25,4.235294,-14.117647,-131.294118,-0.054902,-0.070588,-0.070588,-13.72549,-5.882353,29.411765,2,1,1
2,49,26,2.823529,-14.117647,-129.882353,-0.086275,0.039216,-0.023529,-33.333333,-9.803922,29.411765,2,1,1
2,49,27,1.411765,-14.117647,-129.882353,-0.007843,-0.039216,0.054902,-37.254902,-1.960784,9.803922,2,1,1
2,49,28,0,-14.117647,-128.470588,-0.007843,0.070588,0.070588,-29.411765,-5.882353,5.882353,2,1,1
2,49,29,0,-12.705882,-128.470588,-0.023529,0.023529,0.039216,-21.568627,-5.882353,13.72549,2,1,1
2,50,0,-4.235294,-29.647059,-132.705882,1.952941,-1.968627,0.996078,5.882353,484.313725,-107.843137,2,1,1
2,50,1,-4.235294,-29.647059,-132.705882,0.180392,0.039216,-0.14902,1.960784,-9.803922,-1.960784,2,1,1
2,50,2,-4.235294,-28.235294,-132.705882,0.039216,-0.023529,-0.039216,-1.960784,13.72549,-1.960784,2,1,1
2,50,3,-4.235294,-28.235294,-132.705882,0.054902,0.023529,-0.117647,-1.960784,-5.882353,-1.960784,2,1,1
2,50,4,-4.235294,-28.235294,-132.705882,-0.086275,-0.054902,0.196078,-1.960784,-13.72549,-1.960784,2,1,1
2,50,5,-4.235294,-26.823529,-132.705882,-0.023529,-0.007843,0.007843,-1.960784,-1.960784,-1.960784,2,1,1
2,50,6,-4.235294,-26.823529,-132.705882,-0.054902,-0.023529,0.070588,-1.960784,-5.882353,-1.960784,2,1,1
2,50,7,-4.235294,-26.823529,-132.705882,-0.023529,-0.007843,0.007843,-1.960784,-1.960784,-1.960784,2,1,1
2,50,8,-4.235294,-25.411765,-132.705882,-0.007843,-0.007843,-0.007843,-1.960784,-1.960784,-1.960784,2,1,1
2,50,9,-4.235294,-25.411765,-132.705882,-0.007843,-0.007843,-0.023529,-1.960784,-1.960784,-1.960784,2,1,1
2,50,10,-4.235294,-25.411765,-132.705882,-0.023529,-0.007843,-0.007843,-1.960784,-1.960784,-1.960784,2,1,1
2,50,11,-4.235294,-25.411765,-132.705882,-0.070588,-0.007843,0.070588,-1.960784,-13.72549,-1.960784,2,1,1
2,50,12,-2.823529,-25.411765,-129.882353,0.196078,0.211765,-0.305882,13.72549,-17.647059,72.54902,2,1,1
2,50,13,0,-26.823529,-127.058824,0.101961,-0.054902,0.290196,17.647059,-49.019608,92.156863,2,0,1
2,50,14,0,-28.235294,-124.235294,0.133333,0.023529,0.27451,21.568627,-76.470588,52.941176,2,0,1
2,50,15,1.411765,-29.647059,-122.823529,0.180392,0.117647,0.086275,21.568627,-68.627451,60.784314,2,0,1
2,50,16,2.823529,-31.058824,-120,0.258824,0.14902,0.023529,41.176471,-49.019608,88.235294,2,0,1
2,50,17,4.235294,-32.470588,-117.176471,0.27451,0.054902,-0.101961,41.176471,-21.568627,76.470588,2,0,1
2,50,18,5.647059,-32.470588,-114.352941,0.164706,0.14902,-0.086275,25.490196,-13.72549,64.705882,2,0,1
2,50,19,5.647059,-31.058824,-111.529412,0.196078,0.227451,-0.321569,17.647059,1.960784,92.156863,2,0,1
2,50,20,7.058824,-29.647059,-107.294118,0.164706,0.007843,-0.196078,21.568627,21.568627,119.607843,2,0,1
2,50,21,7.058824,-29.647059,-104.470588,0.117647,-0.023529,-0.101961,13.72549,-9.803922,92.156863,2,0,1
2,50,22,7.058824,-31.058824,-101.647059,0.086275,-0.007843,-0.117647,9.803922,-60.784314,92.156863,2,0,1
2,50,23,8.470588,-32.470588,-98.823529,0.007843,0.086275,-0.258824,17.647059,-68.627451,92.156863,2,0,1
2,50,24,8.470588,-33.882353,-96,0.039216,-0.070588,-0.243137,5.882353,-25.490196,76.470588,2,0,1
2,50,25,8.470588,-32.470588,-94.588235,0.023529,0.039216,-0.101961,5.882353,-1.960784,56.862745,2,0,1
2,50,26,8.470588,-32.470588,-91.764706,0.039216,-0.007843,-0.070588,-1.960784,9.803922,49.019608,2,0,1
2,50,27,8.470588,-29.647059,-90.352941,0.086275,0.086275,-0.070588,9.803922,29.411765,33.333333,2,0,1
2,50,28,8.470588,-28.235294,-90.352941,0.070588,0.070588,0.039216,1.960784,29.411765,33.333333,2,0,1
2,50,29,8.470588,-28.235294,-88.941176,0.133333,-0.039216,-0.023529,1.960784,17.647059,25.490196,2,1,1
2,51,0,7.058824,-26.823529,-88.941176,0.14902,0.007843,-0.039216,-5.882353,21.568627,9.803922,2,1,1
2,51,1,7.058824,-25.411765,-87.529412,0.133333,0.054902,0.039216,-9.803922,21.568627,17.647059,2,1,1
2,51,2,7.058824,-25.411765,-87.529412,0.14902,0.023529,0.070588,-13.72549,5.882353,21.568627,2,1,1
2,51,3,5.647059,-21.176471,-87.529412,0.243137,-0.007843,-0.086275,-17.647059,131.372549,-5.882353,2,1,1
2,51,4,5.647059,-16.941176,-86.117647,0.164706,0.133333,-0.039216,-25.490196,103.921569,13.72549,2,1,1
2,51,5,5.647059,-16.941176,-86.117647,-1.654902,-0.086275,0.760784,1.960784,-37.254902,9.803922,2,1,1
2,51,6,5.647059,-16.941176,-84.705882,-0.321569,-0.039216,0.384314,1.960784,-13.72549,25.490196,2,1,1
2,51,7,5.647059,-16.941176,-84.705882,-0.070588,0.117647,-0.054902,-5.882353,-5.882353,21.568627,2,1,1
2,51,8,5.647059,-15.529412,-84.705882,0.007843,-0.023529,-0.117647,-1.960784,17.647059,-1.960784,2,1,1
2,51,9,4.235294,-15.529412,-84.705882,0.039216,-0.023529,-0.086275,-1.960784,1.960784,-1.960784,2,1,1
2,51,10,4.235294,-15.529412,-84.705882,-0.007843,-0.007843,0.007843,-1.960784,-1.960784,-1.960784,2,1,1
2,51,11,4.235294,-14.117647,-84.705882,-0.007843,-0.007843,-0.007843,-1.960784,-1.960784,-1.960784,2,1,1
2,51,12,4.235294,-14.117647,-84.705882,-0.007843,-0.007843,-0.023529,-1.960784,-1.960784,-1.960784,2,1,1
2,51,13,4.235294,-14.117647,-84.705882,-0.007843,-0.007843,-0.007843,-1.960784,-1.960784,-1.960784,2,1,1
2,51,14,4.235294,-14.117647,-84.705882,-0.007843,-0.007843,-0.007843,-1.960784,-1.960784,-1.960784,2,1,1
2,51,15,4.235294,-14.117647,-84.705882,-0.007843,-0.007843,-0.007843,-1.960784,-1.960784,-1.960784,2,1,1
2,51,16,4.235294,-14.117647,-84.705882,-0.007843,-0.007843,-0.007843,-1.960784,-1.960784,-1.960784,2,1,1
2,51,17,4.235294,-12.705882,-84.705882,-0.007843,-0.007843,-0.007843,-1.960784,-1.960784,-1.960784,2,1,1
2,51,18,4.235294,-12.705882,-84.705882,-0.007843,-0.007843,-0.007843,-1.960784,-1.960784,-1.960784,2,1,1
2,51,19,4.235294,-12.705882,-84.705882,-0.007843,-0.007843,-0.007843,-1.960784,-1.960784,-1.960784,2,1,1
2,51,20,4.235294,-12.705882,-84.705882,-0.007843,-0.007843,-0.007843,-1.960784,-1.960784,-1.960784,2,1,1
2,51,21,4.235294,-12.705882,-84.705882,-0.007843,-0.007843,-0.007843,-1.960784,-1.960784,-1.960784,2,1,1
2,51,22,4.235294,-12.705882,-84.705882,0.007843,-0.039216,0.007843,-1.960784,1.960784,-1.960784,2,1,1
2,51,23,4.235294,-11.294118,-84.705882,-0.007843,-0.007843,-0.007843,-1.960784,-1.960784,-1.960784,2,1,1
2,51,24,2.823529,-11.294118,-84.705882,0.007843,-0.007843,-0.039216,-1.960784,-1.960784,-1.960784,2,1,1
2,51,25,2.823529,-11.294118,-84.705882,-0.054902,-0.007843,0.023529,-1.960784,-1.960784,5.882353,2,1,1
2,51,26,2.823529,-11.294118,-80.470588,0.070588,0.023529,-0.039216,1.960784,-5.882353,100,2,1,1
2,51,27,4.235294,-11.294118,-77.647059,0.039216,0.007843,-0.070588,1.960784,-5.882353,96.078431,2,1,1
2,51,28,4.235294,-11.294118,-77.647059,0.117647,-0.054902,-0.023529,29.411765,13.72549,-9.803922,2,1,1
2,51,29,7.058824,-9.882353,-77.647059,0.14902,0.243137,0.211765,60.784314,25.490196,-1.960784,2,1,1
2,51,30,8.470588,-9.882353,-77.647059,-0.054902,-0.211765,0.352941,68.627451,-13.72549,1.960784,2,1,1
2,52,0,7.058824,-11.294118,-76.235294,0.023529,0.133333,0.227451,-37.254902,-25.490196,33.333333,2,1,1
2,52,1,7.058824,-12.705882,-74.823529,0.227451,0.321569,0.086275,-21.568627,-76.470588,64.705882,2,1,1
2,52,2,8.470588,-15.529412,-70.588235,0.039216,0.196078,-0.007843,45.098039,-88.235294,115.686275,2,1,1
2,52,3,8.470588,-18.352941,-66.352941,-0.039216,-0.007843,-0.164706,-9.803922,-84.313725,150.980392,2,1,1
2,52,4,5.647059,-21.176471,-60.705882,-0.070588,0.054902,-0.227451,-88.235294,-103.921569,154.901961,2,1,1
2,52,5,2.823529,-24,-55.058824,0.117647,0.007843,-0.494118,-56.862745,-107.843137,150.980392,2,1,1
2,52,6,2.823529,-26.823529,-52.235294,-0.023529,-0.227451,-0.337255,-13.72549,-80.392157,107.843137,2,1,1
2,52,7,1.411765,-26.823529,-49.411765,0.101961,-0.070588,-0.384314,-13.72549,-41.176471,56.862745,2,1,1
2,52,8,1.411765,-25.411765,-49.411765,0.101961,-0.101961,-0.431373,13.72549,68.627451,29.411765,2,1,1
2,52,9,2.823529,-21.176471,-46.588235,0.14902,-0.243137,-0.054902,13.72549,115.686275,45.098039,2,1,1
2,52,10,2.823529,-18.352941,-46.588235,0.14902,-0.086275,0.070588,5.882353,80.392157,33.333333,2,1,1
2,52,11,2.823529,-15.529412,-45.176471,0.180392,-0.14902,0.117647,9.803922,45.098039,49.019608,2,1,1
2,52,12,5.647059,-5.647059,-45.176471,-0.666667,-0.996078,0.494118,100,311.764706,-37.254902,2,1,1
2,52,13,9.882353,-8.470588,-45.176471,-0.352941,0.52549,-0.541176,131.372549,-96.078431,-1.960784,2,1,1
2,52,14,9.882353,-11.294118,-45.176471,0.054902,0.023529,0.917647,13.72549,-131.372549,-5.882353,2,1,1
2,52,15,11.294118,-12.705882,-45.176471,-0.478431,0.117647,0.509804,1.960784,-52.941176,1.960784,2,1,1
2,52,16,9.882353,-12.705882,-45.176471,0.070588,0.007843,-0.086275,-1.960784,5.882353,1.960784,2,0,1
2,52,17,9.882353,-12.705882,-45.176471,-0.054902,-0.007843,0.070588,-1.960784,-5.882353,-1.960784,2,0,1
2,52,18,9.882353,-12.705882,-45.176471,-0.14902,-0.007843,0.086275,-1.960784,-21.568627,-1.960784,2,0,1
2,52,19,9.882353,-12.705882,-45.176471,-0.023529,-0.007843,0.054902,-1.960784,1.960784,-1.960784,2,0,1
2,52,20,9.882353,-12.705882,-45.176471,-0.039216,-0.007843,0.039216,-1.960784,-1.960784,-1.960784,2,0,1
2,52,21,9.882353,-12.705882,-45.176471,-0.007843,-0.007843,-0.007843,-1.960784,-1.960784,-1.960784,2,0,1
2,52,22,9.882353,-11.294118,-45.176471,0.007843,-0.007843,-0.023529,-1.960784,1.960784,1.960784,2,0,1
2,52,23,9.882353,-11.294118,-42.352941,0.007843,0.054902,0.054902,5.882353,9.803922,76.470588,2,0,1
2,52,24,9.882353,-8.470588,-42.352941,0.070588,-0.243137,0.27451,9.803922,88.235294,17.647059,2,0,1
2,52,25,8.470588,-7.058824,-42.352941,0.039216,0.133333,0.52549,-5.882353,52.941176,-1.960784,2,0,1
2,52,26,8.470588,-7.058824,-39.529412,0.007843,0.321569,0.384314,-13.72549,-33.333333,68.627451,2,0,1
2,52,27,8.470588,-9.882353,-35.294118,-0.070588,0.133333,0.086275,1.960784,-72.54902,107.843137,2,0,1
2,52,28,8.470588,-11.294118,-32.470588,-0.101961,0.054902,-0.007843,1.960784,-72.54902,84.313725,2,0,1
2,52,29,8.470588,-15.529412,-26.823529,-0.023529,0.27451,-0.164706,-5.882353,-119.607843,166.666667,2,0,1
2,53,0,8.470588,-19.764706,-21.176471,-0.101961,0.007843,-0.290196,-21.568627,-150.980392,205.882353,2,0,1
2,53,1,7.058824,-21.176471,-15.529412,-0.039216,-0.039216,-0.807843,-1.960784,-88.235294,135.294118,2,0,1
2,53,2,8.470588,-21.176471,-11.294118,0.054902,0.039216,-0.65098,21.568627,25.490196,139.215686,2,1,1
2,53,3,8.470588,-19.764706,-7.058824,-0.086275,-0.133333,-0.27451,-5.882353,-1.960784,139.215686,2,1,1
2,53,4,7.058824,-18.352941,-2.823529,-0.023529,-0.117647,-0.368627,-5.882353,29.411765,107.843137,2,1,1
2,53,5,7.058824,-16.941176,1.411765,0.039216,-0.180392,-0.070588,-1.960784,56.862745,88.235294,2,1,1
2,53,6,7.058824,-15.529412,4.235294,0.164706,-0.227451,0.007843,-1.960784,37.254902,68.627451,2,1,1
2,53,7,7.058824,-14.117647,5.647059,0.023529,-0.133333,0.101961,5.882353,29.411765,68.627451,2,1,1
2,53,8,5.647059,-11.294118,8.470588,-0.070588,-0.164706,0.023529,-1.960784,49.019608,76.470588,2,1,1
2,53,9,5.647059,-8.470588,11.294118,-0.086275,-0.164706,0.023529,-5.882353,88.235294,64.705882,2,1,1
2,53,10,5.647059,-5.647059,12.705882,-0.070588,-0.196078,0.039216,-1.960784,107.843137,56.862745,2,1,1
2,53,11,5.647059,11.294118,9.882353,1.984314,-0.133333,0.478431,17.647059,398.039216,-64.705882,2,1,1
2,53,12,7.058824,8.470588,11.294118,-0.839216,-0.023529,0.760784,21.568627,-68.627451,1.960784,2,1,1
2,53,13,7.058824,8.470588,11.294118,-0.164706,-0.086275,-0.039216,25.490196,-29.411765,1.960784,2,1,1
2,53,14,8.470588,7.058824,11.294118,-0.227451,-0.086275,0.101961,25.490196,-49.019608,5.882353,2,1,1
2,53,15,9.882353,4.235294,11.294118,-0.227451,-0.007843,0.086275,56.862745,-60.784314,1.960784,2,1,1
2,53,16,7.058824,7.058824,12.705882,0.462745,-0.478431,-1.764706,17.647059,-115.686275,29.411765,2,1,1
2,53,17,7.058824,7.058824,12.705882,-0.023529,0.007843,0.054902,-1.960784,-1.960784,-1.960784,2,1,1
2,53,18,7.058824,7.058824,12.705882,-0.023529,0.007843,0.023529,-1.960784,-17.647059,-1.960784,2,0,1
2,53,19,7.058824,7.058824,12.705882,0.007843,0.007843,-0.023529,-1.960784,-1.960784,-1.960784,2,0,1
2,53,20,7.058824,7.058824,12.705882,-0.007843,0.007843,-0.007843,-1.960784,-1.960784,-1.960784,2,0,1
2,53,21,5.647059,5.647059,12.705882,-0.007843,-0.007843,-0.023529,-1.960784,-1.960784,-1.960784,2,0,1
2,53,22,5.647059,5.647059,12.705882,-0.007843,-0.007843,-0.007843,-1.960784,-1.960784,-1.960784,2,0,1
2,53,23,5.647059,5.647059,12.705882,-0.007843,-0.007843,-0.007843,-1.960784,-1.960784,-1.960784,2,0,1
2,53,24,5.647059,5.647059,12.705882,-0.007843,-0.007843,-0.023529,-1.960784,-1.960784,-1.960784,2,0,1
2,53,25,5.647059,5.647059,11.294118,-0.14902,-0.023529,-0.039216,-1.960784,-1.960784,-13.72549,2,0,1
2,53,26,5.647059,5.647059,12.705882,-0.023529,-0.054902,0.007843,-1.960784,-5.882353,5.882353,2,0,1
2,53,27,4.235294,4.235294,14.117647,0.070588,-0.086275,0.368627,-21.568627,-25.490196,49.019608,2,0,1
2,53,28,4.235294,4.235294,14.117647,0.337255,-0.164706,0.698039,5.882353,-13.72549,1.960784,2,0,1
2,53,29,4.235294,1.411765,14.117647,0.211765,0.007843,0.65098,-9.803922,-72.54902,9.803922,2,0,1
2,54,0,2.823529,0,15.529412,0.211765,0.086275,0.133333,-33.333333,-56.862745,25.490196,2,0,1
2,54,1,2.823529,-2.823529,15.529412,0.164706,0.101961,0.039216,-17.647059,-37.254902,17.647059,2,0,1
2,54,2,2.823529,-4.235294,16.941176,0.117647,0.070588,-0.305882,-9.803922,-37.254902,9.803922,2,0,1
2,54,3,1.411765,-4.235294,18.352941,0.039216,0.117647,-0.682353,-41.176471,33.333333,49.019608,2,0,1
2,54,4,0,1.411765,19.764706,-0.007843,-0.007843,-0.556863,-68.627451,96.078431,68.627451,2,1,1
2,54,5,-2.823529,4.235294,22.588235,-0.007843,-0.086275,-0.494118,-41.176471,88.235294,56.862745,2,1,1
2,54,6,-4.235294,5.647059,24,-0.054902,-0.039216,-0.415686,-9.803922,64.705882,49.019608,2,1,1
2,54,7,-2.823529,7.058824,25.411765,-0.180392,-0.101961,-0.431373,13.72549,25.490196,41.176471,2,1,1
2,54,8,-2.823529,7.058824,26.823529,-0.164706,-0.070588,-0.4,29.411765,1.960784,29.411765,2,1,1
2,54,9,0,7.058824,28.235294,-0.180392,-0.054902,-0.290196,29.411765,-13.72549,33.333333,2,1,1
2,54,10,1.411765,7.058824,28.235294,-0.196078,-0.070588,-0.196078,33.333333,-17.647059,29.411765,2,1,1
2,54,11,2.823529,7.058824,29.647059,-0.164706,-0.086275,-0.023529,33.333333,-5.882353,21.568627,2,1,1
2,54,12,2.823529,7.058824,29.647059,-0.164706,-0.101961,0.133333,29.411765,5.882353,21.568627,2,1,1
2,54,13,4.235294,7.058824,31.058824,-0.117647,-0.133333,0.321569,21.568627,5.882353,9.803922,2,1,1
2,54,14,4.235294,7.058824,31.058824,-0.117647,-0.054902,0.243137,29.411765,-1.960784,-1.960784,2,1,1
2,54,15,4.235294,7.058824,31.058824,-0.117647,-0.039216,0.196078,5.882353,5.882353,1.960784,2,1,1
2,54,16,4.235294,2.823529,31.058824,0.698039,-0.117647,-0.227451,1.960784,-92.156863,-5.882353,2,1,1
2,54,17,4.235294,2.823529,31.058824,0.023529,-0.039216,-0.180392,1.960784,1.960784,1.960784,2,1,1
2,54,18,4.235294,2.823529,31.058824,0.101961,-0.023529,-0.086275,-1.960784,-1.960784,1.960784,2,1,1
2,54,19,4.235294,2.823529,31.058824,-0.007843,0.023529,-0.023529,-1.960784,-1.960784,-1.960784,2,1,1
2,54,20,4.235294,2.823529,31.058824,-0.007843,0.007843,-0.007843,-1.960784,-1.960784,-1.960784,2,1,1
2,54,21,4.235294,2.823529,31.058824,-0.023529,-0.007843,-0.007843,-1.960784,-1.960784,-5.882353,2,1,1
2,54,22,4.235294,2.823529,31.058824,-0.023529,-0.007843,-0.007843,-1.960784,-1.960784,-1.960784,2,1,1
2,54,23,4.235294,2.823529,31.058824,-0.007843,-0.007843,0.023529,-1.960784,-5.882353,-1.960784,2,1,1
2,54,24,4.235294,1.411765,31.058824,-0.039216,-0.023529,0.070588,1.960784,-17.647059,-1.960784,2,1,1
2,54,25,4.235294,2.823529,31.058824,-0.070588,-0.070588,0.14902,1.960784,1.960784,1.960784,2,1,1
2,54,26,2.823529,1.411765,31.058824,0.14902,0.039216,0.478431,-21.568627,-1.960784,9.803922,2,1,1
2,54,27,2.823529,0,31.058824,0.101961,-0.070588,0.556863,-25.490196,-37.254902,1.960784,2,1,1
2,54,28,1.411765,-2.823529,31.058824,0.133333,0.007843,0.368627,-25.490196,-49.019608,1.960784,2,1,1
2,54,29,0,-4.235294,31.058824,0.133333,0.023529,0.14902,-37.254902,-37.254902,9.803922,2,1,1
2,54,30,-2.823529,-4.235294,32.470588,0.117647,-0.023529,-0.039216,-41.176471,-33.333333,13.72549,2,1,1
2,55,0,-4.235294,-5.647059,32.470588,0.070588,-0.039216,-0.227451,-41.176471,-21.568627,13.72549,2,1,1
2,55,1,-5.647059,-5.647059,33.882353,0.070588,-0.054902,-0.321569,-41.176471,-13.72549,17.647059,2,1,1
2,55,2,-5.647059,-7.058824,33.882353,0.007843,-0.086275,-0.478431,-29.411765,-17.647059,13.72549,2,1,1
2,55,3,-5.647059,-7.058824,33.882353,-0.023529,-0.023529,-0.572549,-13.72549,-13.72549,13.72549,2,1,1
2,55,4,-5.647059,-7.058824,35.294118,-0.054902,-0.039216,-0.635294,1.960784,-5.882353,13.72549,2,1,1
2,55,5,-5.647059,-5.647059,35.294118,-0.039216,-0.007843,-0.603922,29.411765,9.803922,5.882353,2,0,1
2,55,6,-4.235294,-4.235294,35.294118,-0.023529,-0.007843,-0.4,13.72549,29.411765,17.647059,2,0,1
2,55,7,-4.235294,-4.235294,36.705882,0.039216,-0.14902,-0.101961,25.490196,33.333333,17.647059,2,0,1
2,55,8,0,-2.823529,36.705882,-0.007843,-0.101961,-0.054902,52.941176,17.647059,5.882353,2,0,1
2,55,9,0,0,38.117647,0.039216,-0.117647,0.117647,17.647059,33.333333,13.72549,2,0,1
2,55,10,0,0,38.117647,0.023529,-0.101961,0.180392,13.72549,37.254902,9.803922,2,0,1
2,55,11,1.411765,1.411765,38.117647,0.007843,-0.054902,0.258824,29.411765,13.72549,5.882353,2,0,1
2,55,12,1.411765,1.411765,38.117647,-0.039216,-0.117647,0.180392,17.647059,17.647059,5.882353,2,0,1
2,55,13,2.823529,2.823529,38.117647,-0.039216,-0.101961,0.196078,17.647059,17.647059,1.960784,2,0,1
2,55,14,8.470588,1.411765,38.117647,-0.415686,0.682353,0.117647,166.666667,-17.647059,-5.882353,2,0,1
2,55,15,8.470588,1.411765,38.117647,-0.384314,0.14902,-0.14902,1.960784,-21.568627,5.882353,2,0,1
2,55,16,8.470588,1.411765,38.117647,0.039216,-0.007843,-0.007843,-1.960784,-1.960784,-1.960784,2,0,1
2,55,17,8.470588,1.411765,38.117647,-0.086275,-0.007843,0.070588,-1.960784,1.960784,-1.960784,2,0,1
2,55,18,8.470588,1.411765,38.117647,-0.086275,0.007843,0.070588,-1.960784,-1.960784,-1.960784,2,0,1
2,55,19,8.470588,1.411765,38.117647,-0.054902,-0.007843,0.039216,-1.960784,-5.882353,-1.960784,2,0,1
2,55,20,7.058824,1.411765,38.117647,-0.070588,0.007843,0.070588,-1.960784,-1.960784,-1.960784,2,0,1
2,55,21,7.058824,1.411765,38.117647,-0.14902,-0.039216,0.023529,-1.960784,-1.960784,-1.960784,2,0,1
2,55,22,7.058824,0,38.117647,0.039216,0.007843,0.4,-5.882353,-41.176471,5.882353,2,0,1
2,55,23,7.058824,0,38.117647,0.039216,-0.086275,0.4,-9.803922,-1.960784,-1.960784,2,0,1
2,55,24,5.647059,0,39.529412,0.070588,-0.086275,0.509804,-29.411765,-17.647059,5.882353,2,0,1
2,55,25,4.235294,-2.823529,39.529412,0.086275,-0.133333,0.384314,-33.333333,-17.647059,1.960784,2,0,1
2,55,26,2.823529,-2.823529,39.529412,0.101961,-0.086275,0.196078,-45.098039,-25.490196,1.960784,2,0,1
2,55,27,1.411765,-4.235294,39.529412,0.070588,-0.039216,-0.054902,-60.784314,-17.647059,-1.960784,2,0,1
2,55,28,-2.823529,-4.235294,39.529412,0.070588,-0.039216,-0.180392,-60.784314,-5.882353,1.960784,2,0,1
2,55,29,-4.235294,-4.235294,39.529412,0.054902,-0.039216,-0.352941,-64.705882,-9.803922,1.960784,2,0,1
2,56,0,-5.647059,-4.235294,39.529412,0.007843,-0.023529,-0.509804,-41.176471,-1.960784,1.960784,2,0,1
2,56,1,-5.647059,-4.235294,39.529412,0.007843,-0.054902,-0.572549,-13.72549,-5.882353,-1.960784,2,0,1
2,56,2,-5.647059,-4.235294,39.529412,-0.023529,-0.039216,-0.666667,13.72549,-9.803922,-5.882353,2,0,1
2,56,3,-4.235294,-4.235294,39.529412,-0.023529,-0.007843,-0.682353,29.411765,-1.960784,-1.960784,2,0,1
2,56,4,-4.235294,-4.235294,39.529412,-0.007843,-0.039216,-0.478431,25.490196,17.647059,5.882353,2,0,1
2,56,5,-4.235294,-2.823529,39.529412,-0.007843,-0.164706,-0.290196,5.882353,21.568627,13.72549,2,0,1
2,56,6,0,0,39.529412,0.023529,-0.101961,0.023529,56.862745,17.647059,-5.882353,2,0,1
2,56,7,1.411765,0,39.529412,0.023529,-0.164706,0.086275,49.019608,-1.960784,-5.882353,2,0,1
2,56,8,2.823529,0,39.529412,0.023529,-0.101961,0.133333,41.176471,13.72549,-9.803922,2,0,1
2,56,9,2.823529,0,39.529412,0.039216,-0.023529,0.211765,29.411765,21.568627,-5.882353,2,0,1
2,56,10,4.235294,0,39.529412,0.039216,-0.086275,0.27451,37.254902,5.882353,-5.882353,2,0,1
2,56,11,4.235294,0,39.529412,0.039216,-0.039216,0.227451,25.490196,-1.960784,-5.882353,2,0,1
2,56,12,5.647059,0,39.529412,0.007843,-0.054902,0.117647,17.647059,-1.960784,-1.960784,2,0,1
2,56,13,5.647059,1.411765,39.529412,-0.007843,-0.039216,0.070588,5.882353,9.803922,1.960784,2,0,1
2,56,14,5.647059,1.411765,39.529412,0.023529,-0.039216,0.117647,-1.960784,9.803922,1.960784,2,0,1
2,56,15,5.647059,1.411765,39.529412,-0.007843,-0.007843,-0.007843,5.882353,-1.960784,-1.960784,2,0,1
2,56,16,5.647059,1.411765,39.529412,0.368627,-0.070588,0.164706,-5.882353,17.647059,1.960784,2,0,1
2,56,17,5.647059,1.411765,39.529412,0.164706,-0.023529,0.054902,1.960784,-5.882353,-13.72549,2,0,1
2,56,18,4.235294,1.411765,39.529412,-0.023529,0.054902,-0.023529,-9.803922,1.960784,1.960784,2,0,1
2,56,19,4.235294,1.411765,39.529412,-0.007843,-0.007843,-0.007843,-1.960784,-1.960784,-1.960784,2,0,1
2,56,20,4.235294,1.411765,39.529412,-0.023529,-0.007843,-0.007843,-1.960784,-1.960784,-1.960784,2,0,1
2,56,21,4.235294,1.411765,39.529412,-0.007843,-0.007843,0.007843,-1.960784,-1.960784,-1.960784,2,0,1
2,56,22,4.235294,1.411765,39.529412,-0.086275,0.007843,0.054902,-5.882353,-5.882353,-9.803922,2,0,1
2,56,23,2.823529,1.411765,39.529412,-0.086275,-0.086275,0.180392,-29.411765,9.803922,9.803922,2,2,0
2,56,24,2.823529,1.411765,39.529412,-0.070588,-0.117647,0.478431,9.803922,5.882353,-9.803922,2,2,0
2,56,25,2.823529,1.411765,39.529412,-0.023529,-0.117647,0.541176,-21.568627,1.960784,-1.960784,2,2,0
2,56,26,1.411765,1.411765,38.117647,0.023529,-0.133333,0.494118,-25.490196,-5.882353,-9.803922,2,2,0
2,56,27,1.411765,1.411765,38.117647,0.039216,-0.054902,0.415686,-25.490196,-9.803922,-9.803922,2,2,0
2,56,28,-2.823529,1.411765,38.117647,0.054902,-0.086275,0.290196,-56.862745,-5.882353,-1.960784,2,2,0
2,56,29,-4.235294,0,38.117647,0.054902,-0.070588,0.227451,-56.862745,-13.72549,-5.882353,2,2,0
2,57,0,-5.647059,0,38.117647,0.070588,-0.054902,0.086275,-60.784314,-21.568627,-9.803922,2,2,0
2,57,1,-8.470588,-2.823529,38.117647,0.086275,-0.086275,-0.054902,-76.470588,-29.411765,-9.803922,2,2,0
2,57,2,-9.882353,-4.235294,38.117647,0.070588,-0.070588,-0.227451,-68.627451,-33.333333,-13.72549,2,2,0
2,57,3,-12.705882,-5.647059,36.705882,0.039216,-0.070588,-0.494118,-52.941176,-41.176471,-13.72549,2,2,0
2,57,4,-14.117647,-5.647059,36.705882,-0.007843,-0.054902,-0.776471,-37.254902,-21.568627,-13.72549,2,2,0
2,57,5,-14.117647,-5.647059,36.705882,0.007843,-0.054902,-0.823529,-37.254902,5.882353,-5.882353,2,2,0
2,57,6,-15.529412,-5.647059,36.705882,0.039216,-0.101961,-0.698039,-37.254902,5.882353,9.803922,2,2,0
2,57,7,-15.529412,-5.647059,36.705882,0.007843,-0.133333,-0.666667,17.647059,-17.647059,5.882353,2,2,0
2,57,8,-14.117647,-5.647059,38.117647,-0.023529,-0.164706,-0.807843,45.098039,-13.72549,5.882353,2,2,0
2,57,9,-14.117647,-5.647059,38.117647,-0.007843,-0.196078,-0.666667,29.411765,17.647059,13.72549,2,0,0
2,57,10,-12.705882,-4.235294,38.117647,-0.007843,-0.180392,-0.4,29.411765,45.098039,13.72549,2,0,0
2,57,11,-11.294118,-2.823529,38.117647,0.023529,-0.180392,-0.023529,60.784314,17.647059,5.882353,2,0,0
2,57,12,-8.470588,-2.823529,38.117647,-0.007843,-0.180392,-0.039216,68.627451,-9.803922,-1.960784,2,0,0
2,57,13,-7.058824,-2.823529,38.117647,-0.007843,-0.101961,-0.054902,52.941176,-5.882353,-1.960784,2,0,0
2,57,14,-5.647059,-2.823529,38.117647,-0.023529,-0.023529,-0.007843,41.176471,5.882353,-1.960784,2,0,0
2,57,15,-4.235294,-2.823529,39.529412,0.086275,-0.101961,0.27451,13.72549,25.490196,9.803922,2,0,0
2,57,16,-2.823529,-2.823529,39.529412,0.054902,-0.14902,0.4,37.254902,-1.960784,1.960784,2,0,0
2,57,17,-2.823529,-2.823529,39.529412,0.039216,-0.180392,0.305882,41.176471,-1.960784,-5.882353,2,0,0
2,57,18,0,-2.823529,39.529412,0.054902,-0.117647,0.227451,13.72549,1.960784,-1.960784,2,0,0
2,57,19,0,-2.823529,39.529412,0.023529,-0.086275,0.180392,17.647059,5.882353,-1.960784,2,0,0
2,57,20,1.411765,0,39.529412,0.007843,-0.054902,0.117647,17.647059,13.72549,-1.960784,2,0,0
2,57,21,1.411765,0,39.529412,0.007843,-0.054902,0.101961,5.882353,13.72549,1.960784,2,0,0
2,57,22,1.411765,1.411765,39.529412,0.007843,0.007843,0.086275,5.882353,17.647059,-1.960784,2,0,0
2,57,23,1.411765,1.411765,39.529412,0.007843,-0.023529,0.133333,-5.882353,17.647059,5.882353,2,0,0
2,57,24,1.411765,1.411765,39.529412,-0.007843,-0.023529,0.070588,5.882353,9.803922,1.960784,2,0,0
2,57,25,1.411765,-2.823529,39.529412,-1.043137,0.023529,0.964706,13.72549,-107.843137,1.960784,2,1,0
2,57,26,1.411765,-2.823529,39.529412,-0.023529,-0.007843,-0.054902,1.960784,5.882353,-9.803922,2,1,0
2,57,27,1.411765,-2.823529,39.529412,0.007843,-0.039216,0.054902,-1.960784,1.960784,-1.960784,2,1,0
2,57,28,1.411765,-2.823529,39.529412,0.023529,-0.007843,-0.039216,-1.960784,-1.960784,-1.960784,2,1,0
2,57,29,1.411765,-2.823529,39.529412,-0.007843,-0.007843,0.023529,-1.960784,-5.882353,-1.960784,2,1,0
2,58,0,1.411765,-2.823529,39.529412,0.039216,0.054902,0.164706,-13.72549,-1.960784,13.72549,2,1,0
2,58,1,0,-2.823529,40.941176,0.023529,-0.305882,0.572549,-33.333333,-1.960784,9.803922,2,1,0
2,58,2,-2.823529,-2.823529,39.529412,0.101961,-0.164706,0.682353,-25.490196,-17.647059,-5.882353,2,1,0
2,58,3,-4.235294,-4.235294,39.529412,0.133333,-0.101961,0.556863,-49.019608,-45.098039,-1.960784,2,1,0
2,58,4,-5.647059,-7.058824,39.529412,0.117647,-0.039216,0.211765,-49.019608,-64.705882,-5.882353,2,1,0
2,58,5,-7.058824,-8.470588,39.529412,0.086275,0.039216,-0.117647,-52.941176,-52.941176,1.960784,2,1,0
2,58,6,-8.470588,-9.882353,40.941176,0.054902,0.023529,-0.337255,-56.862745,-33.333333,9.803922,2,1,0
2,58,7,-9.882353,-9.882353,40.941176,0.039216,-0.007843,-0.478431,-49.019608,-21.568627,17.647059,2,1,0
2,58,8,-11.294118,-9.882353,42.352941,0.007843,-0.054902,-0.556863,-33.333333,-5.882353,13.72549,2,1,0
2,58,9,-11.294118,-9.882353,42.352941,0.007843,-0.086275,-0.541176,-17.647059,-9.803922,13.72549,2,1,0
2,58,10,-11.294118,-9.882353,42.352941,-0.023529,-0.117647,-0.588235,1.960784,-13.72549,9.803922,2,1,0
2,58,11,-11.294118,-9.882353,42.352941,-0.039216,-0.101961,-0.572549,25.490196,-5.882353,5.882353,2,0,0
2,58,12,-9.882353,-9.882353,43.764706,-0.023529,-0.086275,-0.478431,29.411765,5.882353,5.882353,2,0,0
2,58,13,-8.470588,-8.470588,43.764706,0.023529,-0.180392,-0.305882,21.568627,21.568627,9.803922,2,0,0
2,58,14,-7.058824,-8.470588,43.764706,0.039216,-0.180392,-0.086275,37.254902,21.568627,-1.960784,2,0,0
2,58,15,-5.647059,-7.058824,43.764706,0.054902,-0.164706,0.007843,45.098039,9.803922,-5.882353,2,0,0
2,58,16,-4.235294,-7.058824,43.764706,0.054902,-0.164706,0.039216,45.098039,9.803922,-9.803922,2,0,0
2,58,17,-4.235294,-7.058824,43.764706,0.070588,-0.117647,0.086275,29.411765,17.647059,-5.882353,2,0,0
2,58,18,-4.235294,-5.647059,42.352941,0.101961,-0.086275,0.196078,9.803922,13.72549,-5.882353,2,0,0
2,58,19,-2.823529,-5.647059,42.352941,0.070588,-0.023529,0.14902,21.568627,17.647059,-1.960784,2,0,0
2,58,20,-2.823529,-4.235294,43.764706,0.086275,-0.101961,0.227451,13.72549,25.490196,1.960784,2,0,0
2,58,21,0,-4.235294,43.764706,0.054902,-0.086275,0.180392,9.803922,13.72549,-1.960784,2,0,0
2,58,22,0,-2.823529,43.764706,0.023529,-0.070588,0.117647,13.72549,13.72549,-1.960784,2,0,0
2,58,23,0,-2.823529,43.764706,0.007843,-0.086275,0.070588,-1.960784,13.72549,1.960784,2,0,0
2,58,24,1.411765,-2.823529,42.352941,-0.054902,0.070588,0.14902,33.333333,-13.72549,-9.803922,2,0,0
2,58,25,1.411765,-2.823529,42.352941,0.054902,-0.023529,-0.007843,-1.960784,1.960784,-5.882353,2,0,0
2,58,26,1.411765,-2.823529,42.352941,0.007843,-0.007843,-0.039216,-1.960784,1.960784,-1.960784,2,0,0
2,58,27,1.411765,-2.823529,42.352941,0.023529,-0.007843,-0.023529,-1.960784,-1.960784,-1.960784,2,2,0
2,58,28,0,-2.823529,43.764706,0.039216,0.054902,0.164706,-9.803922,-13.72549,9.803922,2,2,0
2,58,29,1.411765,-4.235294,43.764706,0.070588,-0.164706,0.321569,9.803922,-37.254902,-5.882353,2,2,0
2,58,30,1.411765,-5.647059,42.352941,0.070588,-0.023529,0.462745,-1.960784,-21.568627,-5.882353,2,2,0
2,59,0,0,-5.647059,43.764706,0.101961,-0.070588,0.368627,-29.411765,-29.411765,1.960784,2,2,0
2,59,1,-2.823529,-7.058824,43.764706,0.117647,-0.039216,0.243137,-45.098039,-33.333333,1.960784,2,2,0
2,59,2,-4.235294,-8.470588,43.764706,0.101961,0.007843,0.023529,-49.019608,-33.333333,5.882353,2,2,0
2,59,3,-5.647059,-9.882353,43.764706,0.086275,-0.007843,-0.14902,-49.019608,-29.411765,9.803922,2,2,0
2,59,4,-7.058824,-9.882353,45.176471,0.070588,-0.007843,-0.258824,-45.098039,-17.647059,13.72549,2,2,0
2,59,5,-8.470588,-9.882353,45.176471,0.070588,-0.054902,-0.321569,-37.254902,-9.803922,17.647059,2,2,0
2,59,6,-9.882353,-9.882353,45.176471,0.054902,-0.101961,-0.337255,-25.490196,-5.882353,9.803922,2,2,0
2,59,7,-9.882353,-9.882353,46.588235,0.039216,-0.101961,-0.4,-13.72549,-9.803922,5.882353,2,2,0
2,59,8,-9.882353,-9.882353,46.588235,0.007843,-0.101961,-0.494118,1.960784,-5.882353,1.960784,2,2,0
2,59,9,-9.882353,-9.882353,46.588235,-0.007843,-0.101961,-0.494118,9.803922,9.803922,5.882353,2,2,0
2,59,10,-8.470588,-8.470588,46.588235,0.007843,-0.117647,-0.384314,17.647059,17.647059,1.960784,2,2,0
2,59,11,-8.470588,-8.470588,46.588235,-0.007843,-0.133333,-0.290196,17.647059,29.411765,1.960784,2,2,0
2,59,12,-7.058824,-7.058824,46.588235,0.023529,-0.133333,-0.117647,17.647059,37.254902,-1.960784,2,0,0
2,59,13,-7.058824,-5.647059,46.588235,0.054902,-0.101961,0.023529,29.411765,25.490196,-1.960784,2,0,0
2,59,14,-5.647059,-5.647059,46.588235,0.054902,-0.101961,0.070588,45.098039,13.72549,-5.882353,2,0,0
2,59,15,-4.235294,-4.235294,46.588235,0.023529,-0.070588,-0.007843,37.254902,13.72549,-5.882353,2,0,0
2,59,16,-2.823529,-4.235294,46.588235,0.039216,-0.039216,0.070588,25.490196,21.568627,-5.882353,2,0,0
2,59,17,0,-2.823529,46.588235,0.039216,-0.023529,0.070588,29.411765,9.803922,-1.960784,2,0,0
2,59,18,0,-2.823529,46.588235,0.007843,-0.039216,0.039216,25.490196,13.72549,-1.960784,2,0,0
2,59,19,1.411765,0,46.588235,-0.007843,-0.007843,0.070588,13.72549,21.568627,1.960784,2,0,0
2,59,20,1.411765,0,46.588235,-0.023529,-0.039216,0.101961,5.882353,25.490196,5.882353,2,0,0
2,59,21,1.411765,0,46.588235,-0.023529,-0.007843,0.133333,13.72549,9.803922,1.960784,2,0,0
2,59,22,1.411765,1.411765,46.588235,-0.054902,-0.007843,0.054902,13.72549,5.882353,1.960784,2,0,0
2,59,23,1.411765,-4.235294,48,1.984314,0.27451,0.964706,-33.333333,-154.901961,45.098039,2,0,0
2,59,24,1.411765,-5.647059,48,-0.086275,0.023529,0.101961,5.882353,-21.568627,-13.72549,2,0,0
2,59,25,1.411765,-4.235294,48,0.054902,0.054902,-0.133333,-9.803922,1.960784,-1.960784,2,0,0
2,59,26,0,-4.235294,48,0.054902,-0.023529,0.023529,-25.490196,9.803922,-1.960784,2,0,0
2,59,27,0,-4.235294,48,0.007843,0.007843,-0.039216,-9.803922,-5.882353,-1.960784,2,0,0
2,59,28,0,-5.647059,48,0.039216,-0.007843,-0.070588,1.960784,-17.647059,-1.960784,2,1,0
2,59,29,0,-4.235294,48,-0.007843,-0.007843,0.039216,-5.882353,1.960784,-5.882353,2,1,0
3,0,0,0,-4.235294,48,-0.039216,-0.007843,0.054902,-21.568627,9.803922,9.803922,2,1,0
3,0,1,-2.823529,-4.235294,48,0.039216,-0.164706,0.4,-41.176471,13.72549,9.803922,2,1,0
3,0,2,-4.235294,-4.235294,48,0.039216,-0.133333,0.4,-9.803922,-21.568627,-9.803922,2,1,0
3,0,3,-4.235294,-5.647059,48,0.070588,-0.101961,0.337255,-29.411765,-33.333333,-5.882353,2,1,0
3,0,4,-5.647059,-7.058824,48,0.086275,-0.101961,0.211765,-45.098039,-37.254902,-5.882353,2,1,0
3,0,5,-7.058824,-8.470588,48,0.086275,-0.039216,0.054902,-45.098039,-37.254902,-1.960784,2,1,0
3,0,6,-8.470588,-8.470588,48,0.086275,-0.054902,-0.054902,-52.941176,-33.333333,1.960784,2,1,0
3,0,7,-11.294118,-9.882353,48,0.070588,-0.070588,-0.180392,-52.941176,-33.333333,5.882353,2,1,0
3,0,8,-11.294118,-9.882353,49.411765,0.054902,-0.070588,-0.290196,-41.176471,-21.568627,5.882353,2,1,0
3,0,9,-12.705882,-11.294118,49.411765,0.054902,-0.101961,-0.337255,-33.333333,-17.647059,9.803922,2,1,0
3,0,10,-14.117647,-11.294118,49.411765,0.039216,-0.133333,-0.431373,-21.568627,-17.647059,5.882353,2,1,0
