Eulerx,Eulery,Eulerz,Accx,Accy,Accz,Gx,Gy,Gz,label,Activity,Result
0,-2.823529,66.352941,-0.007843,-0.007843,-0.023529,-1.960784,-1.960784,-1.960784,Null,2,2
0,-2.823529,66.352941,-0.007843,0.007843,-0.007843,-1.960784,-1.960784,-1.960784,Null,9,9
0,-2.823529,66.352941,-0.007843,-0.007843,-0.007843,-1.960784,-1.960784,-1.960784,Null,9,9
0,-2.823529,66.352941,-0.007843,-0.007843,-0.007843,-1.960784,-1.960784,-1.960784,Null,9,9
0,-2.823529,66.352941,-0.007843,-0.007843,-0.007843,-1.960784,-1.960784,-1.960784,Null,9,9
0,-2.823529,66.352941,-0.007843,-0.007843,-0.007843,-1.960784,-1.960784,-1.960784,Null,9,9
0,-2.823529,66.352941,-0.007843,-0.007843,0.007843,-1.960784,-1.960784,-1.960784,Null,9,9
0,-2.823529,66.352941,-0.007843,-0.007843,-0.039216,-1.960784,-1.960784,-1.960784,Null,9,9
0,-2.823529,66.352941,-0.007843,-0.007843,-0.023529,-1.960784,-1.960784,-1.960784,Null,9,9
0,-2.823529,66.352941,-0.007843,-0.007843,-0.007843,-1.960784,-1.960784,-1.960784,Null,9,9
0,-2.823529,66.352941,-0.007843,0.007843,-0.007843,-1.960784,-1.960784,-1.960784,Null,9,9
0,-2.823529,66.352941,-0.007843,-0.007843,-0.007843,-1.960784,-1.960784,-1.960784,Null,9,9
0,-2.823529,66.352941,-0.007843,-0.007843,-0.007843,-1.960784,-1.960784,-1.960784,Null,9,9
0,-2.823529,66.352941,-0.007843,-0.007843,-0.007843,-1.960784,-1.960784,-1.960784,Null,9,9
0,-2.823529,66.352941,-0.007843,-0.007843,-0.007843,-1.960784,-1.960784,-1.960784,Null,9,9
0,-2.823529,66.352941,-0.007843,-0.007843,0.007843,-1.960784,-1.960784,-1.960784,Null,9,9
0,-2.823529,66.352941,-0.007843,-0.007843,0.007843,-1.960784,-1.960784,-1.960784,Null,9,9
0,-2.823529,66.352941,-0.007843,-0.007843,-0.007843,-1.960784,-1.960784,-1.960784,Null,2,9
0,-2.823529,66.352941,-0.007843,-0.007843,-0.007843,-1.960784,-1.960784,-1.960784,Null,2,9
0,-2.823529,66.352941,-0.007843,0.007843,-0.023529,-1.960784,-1.960784,-1.960784,Null,2,9
0,-2.823529,66.352941,-0.007843,-0.007843,-0.007843,-1.960784,-1.960784,-1.960784,Null,2,9
0,-2.823529,66.352941,-0.007843,-0.007843,-0.007843,-1.960784,-1.960784,-1.960784,Null,2,9
0,-2.823529,66.352941,-0.007843,-0.007843,-0.007843,-1.960784,-1.960784,-1.960784,Null,2,9
0,-2.823529,66.352941,-0.007843,-0.007843,-0.007843,-1.960784,-1.960784,-1.960784,Null,2,9
0,-2.823529,66.352941,-0.007843,-0.007843,-0.007843,-1.960784,-1.960784,-1.960784,Null,2,9
0,-2.823529,66.352941,-0.007843,-0.007843,-0.007843,-1.960784,-1.960784,-1.960784,Null,2,9
0,-2.823529,66.352941,-0.007843,-0.007843,-0.007843,-1.960784,-1.960784,-1.960784,Null,2,9
0,-2.823529,66.352941,-0.007843,0.007843,-0.007843,-1.960784,-1.960784,-1.960784,Null,2,9
0,-2.823529,66.352941,-0.007843,0.007843,-0.007843,-1.960784,-1.960784,-1.960784,Null,2,9
0,-2.823529,66.352941,-0.007843,-0.007843,-0.007843,-1.960784,-1.960784,-1.960784,Null,2,9
0,-2.823529,66.352941,0.007843,-0.007843,-0.023529,-1.960784,-1.960784,-1.960784,Null,2,9
0,-2.823529,66.352941,-0.007843,-0.007843,-0.023529,-1.960784,-1.960784,-1.960784,Null,2,9
0,-2.823529,66.352941,-0.007843,0.007843,-0.007843,-1.960784,-1.960784,-1.960784,Null,2,9
0,-2.823529,66.352941,-0.007843,-0.007843,-0.007843,-1.960784,-1.960784,-1.960784,Null,2,9
0,-2.823529,66.352941,-0.007843,-0.007843,-0.007843,-1.960784,-1.960784,-1.960784,Null,2,9
0,-2.823529,66.352941,-0.007843,0.007843,0.007843,-1.960784,-1.960784,-1.960784,Null,2,9
0,-2.823529,66.352941,-0.007843,-0.007843,-0.023529,-1.960784,-1.960784,-1.960784,Null,2,9
0,-2.823529,66.352941,-0.007843,0.007843,-0.007843,-1.960784,-1.960784,-1.960784,Null,2,9
0,-2.823529,66.352941,-0.007843,0.007843,-0.007843,-1.960784,-1.960784,-1.960784,Null,2,9
0,-2.823529,66.352941,-0.007843,-0.007843,-0.007843,-1.960784,-1.960784,-1.960784,Null,2,9
0,-2.823529,66.352941,-0.007843,0.007843,-0.007843,-1.960784,-1.960784,-1.960784,Null,2,9
0,-2.823529,66.352941,-0.007843,0.007843,-0.007843,-1.960784,-1.960784,-1.960784,Null,2,9
0,-2.823529,66.352941,-0.007843,-0.007843,-0.007843,-1.960784,-1.960784,-1.960784,Null,2,9
0,-2.823529,66.352941,-0.007843,-0.007843,-0.007843,-1.960784,-1.960784,-1.960784,Null,2,9
0,-2.823529,66.352941,-0.007843,-0.007843,-0.007843,-1.960784,-1.960784,-1.960784,Null,2,9
0,-2.823529,66.352941,-0.007843,0.007843,-0.007843,-1.960784,-1.960784,-1.960784,Null,2,9
0,-2.823529,66.352941,0.007843,-0.007843,-0.023529,-1.960784,-1.960784,-1.960784,Null,2,9
0,-2.823529,66.352941,-0.007843,-0.007843,-0.007843,-1.960784,-1.960784,-1.960784,Null,2,9
0,-2.823529,66.352941,0.007843,-0.007843,-0.007843,-1.960784,-1.960784,-1.960784,Null,2,9
0,-2.823529,66.352941,-0.007843,-0.007843,-0.007843,-1.960784,-1.960784,-1.960784,Null,2,9
0,-2.823529,66.352941,-0.007843,0.007843,-0.007843,-1.960784,-1.960784,-1.960784,Null,2,9
0,-2.823529,66.352941,0.007843,-0.007843,-0.007843,-1.960784,-1.960784,-1.960784,Null,2,9
0,-2.823529,66.352941,-0.007843,-0.007843,-0.007843,-1.960784,-1.960784,-1.960784,Null,2,9
0,-2.823529,66.352941,-0.007843,0.007843,-0.007843,-1.960784,-1.960784,-1.960784,Null,2,9
0,-2.823529,66.352941,-0.007843,-0.007843,-0.007843,-1.960784,-1.960784,-1.960784,Null,2,9
0,-2.823529,66.352941,-0.007843,-0.007843,-0.007843,-1.960784,-1.960784,-1.960784,Null,2,9
0,-2.823529,66.352941,-0.007843,0.007843,-0.007843,-1.960784,-1.960784,-1.960784,Null,2,9
0,-2.823529,66.352941,-0.007843,-0.007843,-0.007843,-1.960784,-1.960784,-1.960784,Null,2,9
0,-2.823529,66.352941,-0.007843,0.007843,-0.007843,-1.960784,-1.960784,-1.960784,Null,2,9
0,-2.823529,66.352941,-0.007843,-0.007843,-0.007843,-1.960784,-1.960784,-1.960784,Null,2,9
0,-2.823529,66.352941,-0.007843,-0.007843,-0.007843,-1.960784,-1.960784,-1.960784,Null,2,9
0,-2.823529,66.352941,-0.007843,-0.007843,-0.007843,-1.960784,-1.960784,-1.960784,Null,2,9
0,-2.823529,66.352941,-0.007843,0.007843,-0.007843,-1.960784,-1.960784,-1.960784,Null,2,9
0,-2.823529,66.352941,-0.007843,-0.007843,-0.007843,-1.960784,-1.960784,-1.960784,Null,2,9
0,-2.823529,66.352941,-0.007843,-0.007843,-0.007843,-1.960784,-1.960784,-1.960784,Null,2,9
0,-2.823529,66.352941,-0.007843,0.007843,-0.007843,-1.960784,-1.960784,-1.960784,Null,2,9
0,-2.823529,66.352941,-0.007843,0.007843,-0.007843,-1.960784,-1.960784,-1.960784,Null,2,9
0,-2.823529,66.352941,-0.007843,-0.007843,-0.007843,-1.960784,-1.960784,-1.960784,Null,2,9
0,-2.823529,66.352941,-0.007843,-0.007843,-0.007843,-1.960784,-1.960784,-1.960784,Null,2,9
0,-2.823529,66.352941,-0.007843,0.007843,-0.007843,-1.960784,-1.960784,-1.960784,Null,2,9
0,-2.823529,66.352941,-0.007843,-0.007843,-0.007843,-1.960784,-1.960784,-1.960784,Null,2,9
0,-2.823529,66.352941,-0.007843,0.007843,-0.007843,-1.960784,-1.960784,-1.960784,Null,2,9
0,-2.823529,66.352941,-0.007843,-0.007843,-0.007843,-1.960784,-1.960784,-1.960784,Null,2,9
0,-2.823529,66.352941,0.007843,-0.023529,-0.007843,-1.960784,-1.960784,1.960784,Null,2,9
0,-2.823529,66.352941,-0.007843,0.007843,-0.007843,-1.960784,-1.960784,-1.960784,Null,2,9
0,-2.823529,66.352941,-0.007843,-0.007843,-0.007843,-1.960784,-1.960784,-1.960784,Null,2,9
0,-2.823529,66.352941,-0.007843,0.007843,-0.007843,-1.960784,-1.960784,-1.960784,Null,2,9
0,-2.823529,66.352941,-0.007843,0.007843,-0.007843,-1.960784,-1.960784,-1.960784,Null,2,9
0,-2.823529,66.352941,-0.007843,0.007843,-0.007843,-1.960784,-1.960784,-1.960784,Null,2,9
0,-2.823529,66.352941,-0.007843,0.007843,-0.007843,-1.960784,-1.960784,-1.960784,Null,2,9
0,-2.823529,66.352941,-0.007843,0.007843,-0.007843,-1.960784,-1.960784,-1.960784,Null,2,9
0,-2.823529,66.352941,-0.007843,-0.007843,-0.007843,-1.960784,-1.960784,-1.960784,Null,2,2
0,-2.823529,66.352941,-0.007843,0.007843,-0.007843,-1.960784,-1.960784,-1.960784,Null,2,2
0,-2.823529,66.352941,-0.007843,0.007843,-0.007843,-1.960784,-1.960784,-1.960784,Null,2,2
0,-2.823529,66.352941,-0.007843,0.007843,-0.007843,-1.960784,-1.960784,-1.960784,Null,2,2
0,-2.823529,66.352941,-0.007843,0.007843,-0.007843,-1.960784,-1.960784,-1.960784,Null,2,2
0,-2.823529,66.352941,-0.007843,-0.007843,-0.007843,-1.960784,-1.960784,-1.960784,Null,2,2
0,-2.823529,66.352941,-0.007843,-0.007843,-0.007843,-1.960784,-1.960784,-1.960784,Null,2,2
0,-2.823529,66.352941,0.007843,-0.007843,-0.007843,-1.960784,-1.960784,-1.960784,Null,2,2
0,-2.823529,66.352941,-0.007843,0.007843,-0.007843,-1.960784,-1.960784,-1.960784,Null,2,2
0,-2.823529,66.352941,-0.007843,-0.007843,-0.023529,-1.960784,-1.960784,-1.960784,Null,2,2
0,-2.823529,66.352941,-0.007843,0.007843,-0.007843,-1.960784,-1.960784,-1.960784,Null,2,2
0,-2.823529,66.352941,-0.007843,0.007843,0.007843,-1.960784,-1.960784,-1.960784,Null,2,2
0,-2.823529,66.352941,-0.007843,-0.007843,-0.007843,-1.960784,-1.960784,-1.960784,Null,2,2
0,-2.823529,66.352941,-0.039216,-0.039216,0.007843,-1.960784,-1.960784,-1.960784,Null,2,2
0,-2.823529,66.352941,0.007843,0.007843,-0.039216,-1.960784,-1.960784,-1.960784,Null,2,2
0,-2.823529,66.352941,-0.023529,-0.007843,0.023529,-1.960784,-1.960784,-1.960784,Null,2,2
0,-2.823529,66.352941,0.007843,-0.007843,-0.039216,-1.960784,1.960784,-1.960784,Null,2,2
0,-2.823529,66.352941,-0.007843,-0.007843,-0.039216,-1.960784,-1.960784,-1.960784,Null,2,2
0,-2.823529,66.352941,-0.007843,0.007843,-0.007843,-1.960784,-1.960784,-1.960784,Null,2,2
0,-2.823529,66.352941,0.007843,0.007843,-0.023529,-1.960784,-1.960784,-1.960784,Null,2,2
0,-2.823529,66.352941,-0.007843,-0.007843,-0.007843,-1.960784,-1.960784,-1.960784,Null,2,2
0,-2.823529,66.352941,-0.007843,-0.007843,-0.007843,-1.960784,-1.960784,-1.960784,Null,2,2
0,-2.823529,66.352941,-0.007843,0.007843,-0.007843,-1.960784,-1.960784,-1.960784,Null,2,2
0,-2.823529,66.352941,-0.007843,-0.007843,-0.023529,-1.960784,-1.960784,-1.960784,Null,2,2
0,-2.823529,66.352941,-0.007843,0.007843,-0.023529,-1.960784,-1.960784,-1.960784,Null,2,2
0,-2.823529,66.352941,-0.007843,0.007843,0.007843,-1.960784,-1.960784,-1.960784,Null,2,2
0,-2.823529,66.352941,-0.007843,-0.007843,0.007843,-1.960784,-1.960784,-1.960784,Null,2,2
0,-2.823529,66.352941,0.007843,0.007843,-0.023529,-1.960784,1.960784,-1.960784,Null,2,2
0,-2.823529,66.352941,-0.007843,-0.007843,-0.007843,-1.960784,-1.960784,-1.960784,Null,2,2
0,-2.823529,66.352941,-0.007843,-0.007843,-0.007843,-1.960784,-1.960784,-1.960784,Null,2,2
0,-2.823529,66.352941,-0.007843,0.007843,0.054902,-1.960784,-1.960784,-1.960784,Null,2,2
0,-2.823529,66.352941,-0.007843,0.007843,0.007843,-1.960784,-5.882353,-1.960784,Null,2,2
0,-2.823529,66.352941,-0.007843,0.007843,0.039216,-1.960784,-5.882353,-1.960784,Null,2,2
0,-2.823529,66.352941,-0.007843,-0.007843,-0.039216,-1.960784,-1.960784,-1.960784,Null,2,2
0,-2.823529,66.352941,-0.007843,0.007843,-0.007843,-1.960784,-1.960784,-1.960784,Null,2,2
0,-2.823529,66.352941,-0.007843,0.007843,-0.023529,-1.960784,-1.960784,-1.960784,Null,2,2
0,-2.823529,66.352941,-0.007843,0.007843,-0.007843,-1.960784,-1.960784,-1.960784,Null,2,2
0,-2.823529,66.352941,-0.007843,-0.007843,-0.007843,-1.960784,-1.960784,-1.960784,Null,2,2
0,-2.823529,66.352941,-0.007843,0.007843,-0.023529,-1.960784,-1.960784,-1.960784,Null,2,2
0,-2.823529,66.352941,-0.007843,0.007843,-0.007843,-1.960784,-1.960784,-1.960784,Null,2,2
0,-2.823529,66.352941,-0.007843,0.007843,-0.007843,-1.960784,-1.960784,-1.960784,Null,2,2
0,-2.823529,66.352941,-0.007843,-0.007843,-0.007843,-1.960784,-1.960784,-1.960784,Null,2,2
0,-2.823529,66.352941,-0.007843,0.007843,-0.007843,-1.960784,-1.960784,-1.960784,Null,2,2
0,-2.823529,66.352941,-0.007843,0.007843,-0.007843,-1.960784,-1.960784,-1.960784,Null,2,2
0,-2.823529,66.352941,-0.007843,-0.007843,-0.007843,-1.960784,-1.960784,-1.960784,Null,2,2
0,-2.823529,66.352941,-0.007843,-0.007843,-0.007843,-1.960784,-1.960784,-1.960784,Null,2,2
0,-2.823529,66.352941,-0.007843,0.007843,-0.007843,-1.960784,-1.960784,-1.960784,Null,2,2
0,-2.823529,66.352941,-0.007843,-0.007843,-0.007843,-1.960784,-1.960784,-1.960784,Null,2,2
0,-2.823529,66.352941,-0.007843,-0.007843,-0.007843,-1.960784,-1.960784,-1.960784,Null,2,2
0,-2.823529,66.352941,-0.007843,0.007843,0.007843,-1.960784,-1.960784,-1.960784,Null,2,2
0,-2.823529,66.352941,-0.007843,-0.007843,-0.007843,-1.960784,-1.960784,-1.960784,Null,2,2
0,-2.823529,66.352941,-0.007843,-0.007843,-0.007843,-1.960784,-1.960784,-1.960784,Null,2,2
0,-2.823529,66.352941,-0.007843,-0.007843,-0.007843,-1.960784,-1.960784,-1.960784,Null,2,2
0,-2.823529,66.352941,-0.007843,-0.007843,-0.007843,-1.960784,-1.960784,-1.960784,Null,2,2
0,-2.823529,66.352941,-0.007843,-0.007843,-0.007843,-1.960784,-1.960784,-1.960784,Null,2,2
0,-2.823529,66.352941,-0.007843,-0.007843,-0.007843,-1.960784,-1.960784,-1.960784,Null,2,2
0,-2.823529,66.352941,-0.007843,-0.007843,-0.007843,-1.960784,-1.960784,-1.960784,Null,2,2
0,-2.823529,66.352941,-0.007843,0.007843,-0.007843,-1.960784,-1.960784,-1.960784,Null,2,2
0,-2.823529,66.352941,-0.007843,-0.007843,-0.023529,-1.960784,-1.960784,-1.960784,Null,2,2
0,-2.823529,66.352941,-0.007843,-0.007843,-0.007843,-1.960784,-1.960784,-1.960784,Null,2,2
0,-2.823529,66.352941,-0.007843,0.007843,-0.007843,-1.960784,-1.960784,-1.960784,Null,2,2
0,-2.823529,66.352941,-0.007843,0.007843,-0.007843,-1.960784,-1.960784,-1.960784,Null,2,2
0,-2.823529,66.352941,-0.007843,0.007843,-0.007843,-1.960784,-1.960784,-1.960784,Null,2,2
0,-2.823529,66.352941,-0.007843,-0.007843,-0.007843,-1.960784,-1.960784,-1.960784,Null,2,2
0,-2.823529,66.352941,-0.007843,-0.007843,-0.007843,-1.960784,-1.960784,-1.960784,Null,2,2
0,-2.823529,66.352941,-0.007843,0.007843,-0.007843,-1.960784,-1.960784,-1.960784,Null,2,2
0,-2.823529,66.352941,-0.007843,-0.007843,-0.007843,-1.960784,-1.960784,-1.960784,Null,2,2
0,-2.823529,66.352941,-0.007843,-0.007843,-0.007843,-1.960784,-1.960784,-1.960784,Null,2,2
0,-2.823529,66.352941,-0.007843,-0.007843,-0.007843,-1.960784,-1.960784,-1.960784,Null,2,2
0,-2.823529,66.352941,-0.007843,-0.007843,-0.007843,-1.960784,-1.960784,-1.960784,Null,2,2
0,-2.823529,66.352941,-0.007843,0.007843,-0.007843,-1.960784,-1.960784,-1.960784,Null,2,2
0,-2.823529,66.352941,-0.007843,0.007843,0.023529,-1.960784,-1.960784,-1.960784,Null,2,2
0,-2.823529,66.352941,-0.007843,-0.007843,-0.007843,-1.960784,-1.960784,-1.960784,Null,2,2
0,-2.823529,66.352941,-0.007843,-0.007843,0.007843,-1.960784,-1.960784,-1.960784,Null,2,2
0,-2.823529,66.352941,-0.007843,0.007843,0.007843,-1.960784,-1.960784,-1.960784,Null,2,2
0,-2.823529,66.352941,-0.007843,-0.007843,-0.007843,-1.960784,-1.960784,-1.960784,Null,2,2
0,-2.823529,66.352941,-0.007843,-0.007843,-0.007843,-1.960784,-1.960784,-1.960784,Null,2,2
0,-2.823529,66.352941,-0.007843,0.007843,-0.007843,-1.960784,-1.960784,-1.960784,Null,2,2
0,-2.823529,66.352941,-0.007843,-0.007843,-0.007843,-1.960784,-1.960784,-1.960784,Null,2,2
0,-2.823529,66.352941,-0.007843,0.007843,-0.007843,-1.960784,-1.960784,-1.960784,Null,2,2
0,-2.823529,66.352941,-0.007843,-0.007843,-0.007843,-1.960784,-1.960784,-1.960784,Null,2,2
0,-2.823529,66.352941,-0.007843,0.007843,-0.007843,-1.960784,-1.960784,-1.960784,Null,2,2
0,-2.823529,66.352941,-0.007843,-0.007843,-0.007843,-1.960784,-1.960784,-1.960784,Null,2,2
0,-2.823529,66.352941,-0.007843,-0.007843,-0.007843,-1.960784,-1.960784,-1.960784,Null,2,2
0,-2.823529,66.352941,-0.007843,0.007843,-0.007843,-1.960784,-1.960784,-1.960784,Null,2,2
0,-2.823529,66.352941,-0.007843,-0.007843,-0.007843,-1.960784,-5.882353,-1.960784,Null,2,2
0,-2.823529,66.352941,-0.007843,-0.007843,-0.007843,-1.960784,-5.882353,-1.960784,Null,2,2
0,-2.823529,66.352941,-0.007843,0.007843,-0.007843,-1.960784,-1.960784,-1.960784,Null,2,2
0,-2.823529,66.352941,-0.007843,-0.007843,-0.007843,-1.960784,-1.960784,-1.960784,Null,2,2
0,-2.823529,66.352941,-0.007843,0.007843,-0.007843,-1.960784,-1.960784,-1.960784,Null,2,2
0,-2.823529,66.352941,-0.007843,-0.007843,-0.007843,-1.960784,-1.960784,-1.960784,Null,2,2
0,-2.823529,66.352941,-0.007843,0.007843,-0.007843,-1.960784,-1.960784,-1.960784,Null,2,2
0,-2.823529,66.352941,-0.007843,0.007843,-0.007843,-1.960784,-1.960784,-1.960784,Null,2,2
0,-2.823529,66.352941,-0.007843,0.007843,-0.007843,-1.960784,-1.960784,-1.960784,Null,2,2
0,-2.823529,66.352941,-0.007843,-0.007843,-0.007843,-1.960784,-1.960784,-1.960784,Null,2,2
0,-2.823529,66.352941,-0.007843,0.007843,-0.007843,-1.960784,-1.960784,-1.960784,Null,2,2
0,-2.823529,66.352941,-0.007843,0.007843,-0.007843,-1.960784,-1.960784,-1.960784,Null,2,2
0,-2.823529,66.352941,-0.007843,-0.007843,-0.007843,-1.960784,-1.960784,-1.960784,Null,2,2
0,-2.823529,66.352941,-0.007843,-0.007843,-0.007843,-1.960784,-1.960784,-1.960784,Null,2,2
0,-2.823529,66.352941,-0.007843,-0.007843,-0.007843,-1.960784,-1.960784,-1.960784,Null,2,2
0,-2.823529,66.352941,-0.007843,-0.007843,-0.007843,-1.960784,-1.960784,-1.960784,Null,2,2
0,-2.823529,66.352941,-0.007843,-0.007843,-0.007843,-1.960784,-1.960784,-1.960784,Null,2,2
0,-2.823529,66.352941,-0.007843,-0.007843,-0.007843,-1.960784,-1.960784,-1.960784,Null,2,2
0,-2.823529,66.352941,-0.007843,0.007843,-0.007843,-1.960784,-1.960784,-1.960784,Null,2,2
0,-2.823529,66.352941,-0.007843,-0.007843,-0.007843,-1.960784,-1.960784,-1.960784,Null,2,2
0,-2.823529,66.352941,-0.007843,0.007843,-0.007843,-1.960784,-1.960784,-1.960784,Null,2,2
0,-2.823529,66.352941,-0.007843,-0.007843,-0.007843,-1.960784,-1.960784,-1.960784,Null,2,2
0,-2.823529,66.352941,-0.007843,-0.007843,-0.007843,-1.960784,-1.960784,-1.960784,Null,2,2
0,-2.823529,66.352941,-0.007843,-0.007843,-0.007843,-1.960784,-1.960784,-1.960784,Null,2,2
0,-2.823529,66.352941,-0.007843,0.007843,-0.007843,-1.960784,-1.960784,-1.960784,Null,2,2
0,-2.823529,66.352941,-0.007843,0.007843,-0.007843,-1.960784,-1.960784,-1.960784,Null,2,2
0,-2.823529,66.352941,-0.007843,0.007843,-0.007843,-1.960784,-1.960784,-1.960784,Null,2,2
0,-2.823529,66.352941,-0.007843,0.007843,-0.007843,-1.960784,-1.960784,-1.960784,Null,2,2
0,-2.823529,66.352941,-0.007843,-0.007843,-0.007843,-1.960784,-1.960784,-1.960784,Null,2,2
0,-2.823529,66.352941,-0.007843,-0.007843,-0.007843,-1.960784,-1.960784,-1.960784,Null,2,2
0,-2.823529,66.352941,-0.007843,-0.007843,-0.007843,-1.960784,-1.960784,-1.960784,Null,2,2
0,-2.823529,66.352941,-0.007843,-0.007843,-0.007843,-1.960784,-1.960784,-1.960784,Null,2,2
0,-2.823529,66.352941,-0.007843,-0.007843,-0.007843,-1.960784,-1.960784,-1.960784,Null,2,2
0,-2.823529,66.352941,-0.007843,-0.007843,-0.007843,-1.960784,-1.960784,-1.960784,Null,2,2
0,-2.823529,66.352941,-0.007843,0.007843,-0.007843,-1.960784,-1.960784,-1.960784,Null,2,2
0,-2.823529,66.352941,-0.007843,-0.007843,-0.007843,-1.960784,-1.960784,-1.960784,Null,2,2
0,-2.823529,66.352941,0.007843,-0.007843,-0.007843,-1.960784,-1.960784,-1.960784,Null,2,2
0,-2.823529,66.352941,-0.007843,-0.007843,-0.007843,-1.960784,-1.960784,-1.960784,Null,2,2
0,-2.823529,66.352941,-0.007843,0.007843,-0.007843,-1.960784,-1.960784,-1.960784,Null,2,2
0,-2.823529,66.352941,-0.007843,-0.007843,-0.007843,-1.960784,-1.960784,-1.960784,Null,2,2
0,-2.823529,66.352941,-0.007843,0.007843,-0.007843,-1.960784,-1.960784,-1.960784,Null,2,2
0,-2.823529,66.352941,-0.007843,-0.007843,-0.007843,-1.960784,-1.960784,-1.960784,Null,2,2
0,-2.823529,66.352941,-0.007843,-0.007843,-0.007843,-1.960784,-1.960784,-1.960784,Null,2,2
0,-2.823529,66.352941,0.007843,-0.007843,-0.007843,-1.960784,-1.960784,-1.960784,Null,2,2
0,-2.823529,66.352941,0.007843,-0.007843,-0.007843,-1.960784,-1.960784,-1.960784,Null,2,2
0,-2.823529,66.352941,-0.007843,0.007843,0.007843,-1.960784,-1.960784,-1.960784,Null,2,2
0,-2.823529,66.352941,-0.007843,0.007843,-0.007843,-1.960784,-1.960784,-1.960784,Null,2,2
0,-2.823529,66.352941,-0.007843,-0.007843,-0.007843,-1.960784,-1.960784,-1.960784,Null,2,2
0,-2.823529,66.352941,0.007843,-0.007843,-0.023529,-1.960784,-1.960784,-1.960784,Null,2,2
0,-2.823529,66.352941,-0.007843,-0.007843,-0.007843,-1.960784,-1.960784,-1.960784,Null,2,2
0,-2.823529,66.352941,-0.007843,0.007843,-0.007843,-1.960784,-1.960784,-1.960784,Null,2,2
0,-2.823529,66.352941,0.007843,0.007843,-0.023529,-1.960784,-1.960784,-1.960784,Null,2,2
0,-2.823529,66.352941,-0.007843,-0.007843,-0.007843,-1.960784,-1.960784,-1.960784,Null,2,2
0,-2.823529,66.352941,-0.007843,-0.007843,0.007843,-1.960784,-1.960784,-1.960784,Null,2,2
0,-2.823529,66.352941,-0.039216,0.070588,-0.023529,-1.960784,-1.960784,1.960784,Null,2,2
0,-2.823529,66.352941,-0.023529,0.070588,0.007843,-1.960784,-1.960784,1.960784,Null,2,2
0,-2.823529,66.352941,-0.007843,0.023529,0.007843,-1.960784,-1.960784,1.960784,Null,2,2
0,-2.823529,66.352941,-0.023529,-0.101961,-0.039216,-1.960784,-1.960784,-5.882353,Null,2,2
0,-2.823529,66.352941,-0.007843,-0.023529,-0.007843,-1.960784,-1.960784,-1.960784,Null,2,2
0,-2.823529,66.352941,0.007843,0.007843,-0.023529,-1.960784,1.960784,-5.882353,Null,2,2
0,0,66.352941,-0.101961,-0.211765,-0.196078,1.960784,1.960784,-9.803922,Null,2,2
0,0,66.352941,-0.039216,0.039216,0.007843,-1.960784,-1.960784,-9.803922,Null,2,2
0,0,64.941176,-0.039216,0.007843,-0.007843,-5.882353,-1.960784,-9.803922,Null,2,2
0,0,64.941176,-0.023529,0.039216,0.070588,1.960784,-1.960784,-5.882353,Null,2,2
0,0,64.941176,0.007843,0.070588,0.054902,-1.960784,-1.960784,-1.960784,Null,2,2
0,-2.823529,64.941176,0.086275,0.039216,0.039216,-1.960784,-1.960784,5.882353,Null,2,2
0,-2.823529,66.352941,0.039216,-0.007843,-0.007843,-1.960784,-1.960784,9.803922,Null,2,2
0,-2.823529,66.352941,-0.007843,-0.007843,-0.007843,-1.960784,-1.960784,-1.960784,Null,2,2
0,0,66.352941,-0.039216,-0.14902,0.227451,-1.960784,5.882353,-1.960784,Null,2,2
0,0,66.352941,0.133333,-0.054902,-0.086275,-1.960784,9.803922,-1.960784,Null,2,2
0,0,66.352941,-0.039216,-0.007843,0.070588,-1.960784,-1.960784,-1.960784,Null,2,2
0,0,66.352941,-0.007843,0.007843,0.054902,-1.960784,-1.960784,-1.960784,Null,2,2
0,0,66.352941,-0.007843,-0.007843,0.007843,-1.960784,-1.960784,-1.960784,Null,2,2
0,0,66.352941,-0.007843,0.007843,0.007843,-1.960784,-1.960784,-1.960784,Null,2,2
0,0,66.352941,0.007843,-0.007843,-0.007843,-1.960784,-1.960784,-1.960784,Null,2,2
0,0,66.352941,-0.007843,-0.007843,-0.007843,-1.960784,-1.960784,-1.960784,Null,1,2
0,0,66.352941,-0.023529,0.007843,0.007843,-1.960784,-1.960784,-1.960784,Null,1,2
0,0,66.352941,0.023529,-0.007843,-0.070588,-1.960784,-1.960784,-1.960784,Null,1,2
0,0,66.352941,-0.023529,0.007843,0.007843,-1.960784,-1.960784,-1.960784,Null,1,2
0,0,66.352941,-0.007843,-0.007843,-0.007843,-1.960784,-1.960784,-1.960784,Null,1,2
0,0,66.352941,0.007843,-0.007843,-0.023529,-1.960784,-1.960784,-1.960784,Null,1,2
0,0,66.352941,-0.007843,0.007843,-0.007843,-1.960784,-1.960784,-1.960784,Null,1,2
0,0,66.352941,-0.007843,-0.007843,-0.007843,-1.960784,-1.960784,-1.960784,Null,1,2
0,0,66.352941,-0.007843,-0.007843,-0.007843,-1.960784,-1.960784,-1.960784,Null,1,2
0,0,66.352941,-0.007843,-0.007843,-0.007843,-1.960784,-1.960784,-1.960784,Null,1,2
0,0,66.352941,-0.007843,0.007843,-0.007843,-1.960784,-1.960784,-1.960784,Null,1,2
0,0,66.352941,-0.007843,-0.007843,-0.007843,-1.960784,-1.960784,-1.960784,Null,1,2
0,0,66.352941,-0.007843,-0.007843,-0.007843,-1.960784,-1.960784,-1.960784,Null,1,2
0,0,66.352941,0.007843,-0.007843,-0.023529,-1.960784,-1.960784,-1.960784,Null,1,2
0,0,66.352941,-0.007843,-0.007843,0.007843,-1.960784,-1.960784,-1.960784,Null,1,2
0,0,66.352941,-0.007843,-0.007843,-0.007843,-1.960784,-1.960784,-1.960784,Null,1,2
0,0,66.352941,-0.007843,-0.007843,-0.007843,-1.960784,-1.960784,-1.960784,Null,2,2
0,0,66.352941,-0.007843,-0.007843,-0.007843,-1.960784,-1.960784,-1.960784,Null,2,2
0,0,66.352941,-0.007843,-0.007843,0.039216,-1.960784,-1.960784,-1.960784,Null,2,2
0,0,66.352941,-0.007843,-0.007843,-0.007843,-1.960784,-1.960784,-1.960784,Null,2,2
0,0,66.352941,-0.039216,0.023529,0.007843,-1.960784,-1.960784,-1.960784,Null,2,2
0,0,66.352941,0.039216,-0.023529,-0.14902,-1.960784,-1.960784,-1.960784,Null,2,2
0,0,66.352941,-0.007843,-0.007843,-0.007843,-1.960784,-1.960784,-1.960784,Null,2,2
0,0,66.352941,-0.007843,-0.007843,-0.007843,-1.960784,-1.960784,-1.960784,Null,2,2
0,0,66.352941,-0.007843,0.007843,-0.007843,-1.960784,-1.960784,-1.960784,Null,2,2
0,0,66.352941,-0.007843,0.007843,-0.007843,-1.960784,-1.960784,-1.960784,Null,2,2
0,0,66.352941,-0.007843,0.007843,-0.007843,-1.960784,-1.960784,-1.960784,Null,2,2
0,0,66.352941,-0.007843,-0.007843,-0.007843,-1.960784,-1.960784,-1.960784,Null,2,2
0,0,66.352941,-0.007843,0.007843,-0.007843,-1.960784,-1.960784,-1.960784,Null,2,2
0,0,66.352941,-0.007843,-0.007843,-0.007843,-1.960784,-1.960784,-1.960784,Null,2,2
0,0,66.352941,-0.007843,-0.007843,-0.007843,-1.960784,-1.960784,-1.960784,Null,2,2
0,0,66.352941,-0.007843,-0.007843,-0.007843,-1.960784,-1.960784,-1.960784,Null,2,2
0,0,66.352941,-0.007843,-0.007843,-0.007843,-1.960784,-1.960784,-1.960784,Null,2,2
0,0,66.352941,-0.007843,-0.007843,-0.007843,-1.960784,-1.960784,-1.960784,Null,2,2
0,0,66.352941,-0.007843,-0.007843,-0.007843,-1.960784,-1.960784,-1.960784,Null,2,2
0,0,66.352941,-0.007843,-0.007843,-0.007843,-1.960784,-1.960784,-1.960784,Null,2,2
0,0,66.352941,-0.007843,-0.007843,-0.007843,-1.960784,-1.960784,-1.960784,Null,2,2
0,0,66.352941,-0.039216,-0.023529,0.101961,-1.960784,-5.882353,-1.960784,Null,2,2
0,0,66.352941,-0.054902,0.007843,0.054902,-1.960784,1.960784,-1.960784,Null,2,2
0,0,66.352941,0.007843,-0.007843,-0.007843,-1.960784,1.960784,-1.960784,Null,2,2
0,0,66.352941,-0.007843,-0.007843,-0.007843,-1.960784,-1.960784,-1.960784,Null,2,2
0,0,66.352941,-0.007843,0.007843,-0.007843,-1.960784,-1.960784,-1.960784,Null,2,2
0,0,66.352941,-0.007843,0.007843,-0.007843,-1.960784,-1.960784,-1.960784,Null,2,2
0,0,66.352941,-0.007843,-0.007843,-0.023529,-1.960784,-1.960784,-1.960784,Null,2,2
0,0,66.352941,-0.007843,-0.007843,-0.007843,-1.960784,-1.960784,-1.960784,Null,2,2
0,0,66.352941,-0.007843,0.007843,-0.007843,-1.960784,-1.960784,-1.960784,Null,2,2
0,0,66.352941,-0.007843,-0.007843,0.007843,-1.960784,-1.960784,-1.960784,Null,2,2
0,0,66.352941,0.007843,-0.007843,-0.023529,-1.960784,-9.803922,-1.960784,Null,2,2
0,-2.823529,66.352941,-0.023529,-0.039216,0.023529,1.960784,-9.803922,-1.960784,Null,2,2
0,-2.823529,66.352941,-0.039216,0.007843,0.070588,-1.960784,-5.882353,-1.960784,Null,2,2
0,-2.823529,66.352941,0.023529,0.007843,-0.054902,-1.960784,1.960784,-1.960784,Null,2,2
0,-2.823529,66.352941,-0.27451,-0.039216,0.603922,-1.960784,-21.568627,-1.960784,Null,2,2
0,-2.823529,66.352941,-0.023529,-0.007843,0.007843,1.960784,-1.960784,-1.960784,Null,2,2
0,-2.823529,66.352941,-0.007843,-0.007843,-0.007843,-1.960784,-1.960784,-1.960784,Null,2,2
0,-2.823529,66.352941,-0.007843,-0.007843,-0.007843,-1.960784,-1.960784,-1.960784,Null,2,2
0,-2.823529,66.352941,-0.007843,0.007843,-0.007843,-1.960784,-1.960784,-1.960784,Null,2,2
0,-2.823529,66.352941,-0.007843,0.007843,-0.007843,-1.960784,-1.960784,-1.960784,Null,2,2
0,-2.823529,66.352941,-0.023529,-0.007843,-0.007843,-1.960784,-1.960784,-1.960784,Null,2,2
0,-2.823529,66.352941,0.007843,-0.007843,-0.039216,-1.960784,-1.960784,-1.960784,Null,2,2
0,-2.823529,66.352941,-0.007843,0.007843,-0.023529,-1.960784,-1.960784,-1.960784,Null,2,2
0,-2.823529,66.352941,-0.007843,-0.007843,-0.007843,-1.960784,-1.960784,-1.960784,Null,2,2
0,-2.823529,66.352941,-0.007843,-0.007843,-0.023529,-1.960784,-1.960784,-1.960784,Null,2,2
0,-2.823529,66.352941,-0.007843,-0.007843,-0.007843,-1.960784,-1.960784,-1.960784,Null,2,2
0,-2.823529,66.352941,-0.007843,-0.007843,-0.007843,-1.960784,-1.960784,-1.960784,Null,2,2
0,-2.823529,66.352941,-0.007843,-0.007843,-0.007843,-1.960784,-1.960784,-1.960784,Null,2,2
0,-2.823529,66.352941,-0.039216,-0.023529,0.054902,-1.960784,-5.882353,-1.960784,Null,2,2
0,-2.823529,66.352941,0.007843,0.007843,-0.007843,-1.960784,-5.882353,-1.960784,Null,2,2
0,-2.823529,66.352941,-0.054902,-0.039216,0.101961,-1.960784,-13.72549,-1.960784,Null,2,2
0,-2.823529,66.352941,-0.007843,-0.007843,0.007843,-1.960784,-1.960784,-1.960784,Null,2,2
0,-2.823529,66.352941,-0.007843,0.007843,-0.007843,-1.960784,-1.960784,-1.960784,Null,2,2
0,-2.823529,66.352941,-0.007843,-0.007843,-0.007843,-1.960784,-1.960784,-1.960784,Null,2,2
0,-2.823529,66.352941,-0.007843,-0.007843,-0.007843,-1.960784,-1.960784,-1.960784,Null,2,2
0,-2.823529,66.352941,-0.007843,-0.007843,-0.007843,-1.960784,-1.960784,-1.960784,Null,2,2
0,-2.823529,66.352941,-0.007843,-0.007843,-0.023529,-1.960784,-1.960784,-1.960784,Null,2,2
0,-2.823529,66.352941,-0.007843,-0.007843,-0.007843,-1.960784,-1.960784,-1.960784,Null,2,2
0,-2.823529,66.352941,0.007843,0.007843,-0.054902,-1.960784,-1.960784,-1.960784,Null,2,2
0,-2.823529,66.352941,-0.007843,-0.007843,0.007843,-1.960784,-1.960784,-1.960784,Null,2,2
0,-2.823529,66.352941,-0.007843,-0.007843,-0.007843,-1.960784,-1.960784,-1.960784,Null,2,2
0,-2.823529,66.352941,-0.007843,-0.007843,0.007843,-1.960784,-1.960784,-1.960784,Null,2,2
0,-2.823529,66.352941,-0.007843,-0.007843,-0.007843,-1.960784,-1.960784,-1.960784,Null,2,2
0,-2.823529,66.352941,-0.007843,0.007843,-0.007843,-1.960784,-5.882353,-1.960784,Null,2,2
0,-2.823529,66.352941,-0.007843,-0.007843,-0.023529,-1.960784,-5.882353,-1.960784,Null,2,2
0,-2.823529,66.352941,-0.007843,-0.007843,-0.023529,-1.960784,-1.960784,-1.960784,Null,2,2
0,-2.823529,66.352941,-0.007843,0.007843,-0.007843,-1.960784,-1.960784,-1.960784,Null,2,2
0,-2.823529,66.352941,-0.039216,0.007843,0.023529,-1.960784,-5.882353,-1.960784,Null,2,2
0,-2.823529,66.352941,-0.023529,0.007843,-0.039216,-1.960784,-1.960784,-1.960784,Null,2,2
0,-2.823529,66.352941,0.007843,0.007843,-0.039216,-1.960784,-1.960784,-1.960784,Null,2,2
0,-2.823529,66.352941,-0.007843,-0.007843,-0.007843,-1.960784,-1.960784,-1.960784,Null,2,2
0,-2.823529,66.352941,0.007843,-0.007843,-0.039216,-1.960784,-1.960784,-1.960784,Null,2,2
0,-2.823529,66.352941,0.007843,-0.007843,-0.023529,-1.960784,-1.960784,-1.960784,Null,2,2
0,-2.823529,66.352941,0.007843,-0.007843,-0.007843,-1.960784,-1.960784,-1.960784,Null,2,2
0,-2.823529,64.941176,0.023529,0.070588,-0.007843,-1.960784,-5.882353,-13.72549,Null,2,2
0,-2.823529,64.941176,-0.039216,-0.039216,0.070588,-9.803922,-5.882353,-13.72549,Null,2,2
-2.823529,-4.235294,64.941176,-0.023529,-0.086275,0.039216,-13.72549,-25.490196,-13.72549,Null,2,2
-2.823529,-5.647059,64.941176,-0.054902,-0.070588,0.258824,-9.803922,-56.862745,-5.882353,Null,2,2
0,-8.470588,63.529412,-0.023529,-0.133333,0.211765,25.490196,-103.921569,-21.568627,Null,2,2
0,-11.294118,63.529412,-0.039216,-0.180392,0.117647,25.490196,-88.235294,-25.490196,Null,1,2
0,-14.117647,62.117647,0.196078,-0.14902,0.478431,-9.803922,-68.627451,-37.254902,Null,1,2
0,-16.941176,60.705882,0.368627,0.054902,0.415686,5.882353,-84.313725,-37.254902,Null,1,2
0,-18.352941,60.705882,0.588235,0.258824,0.290196,-13.72549,-60.784314,-21.568627,Null,1,2
-2.823529,-19.764706,60.705882,0.666667,0.368627,-0.101961,-56.862745,-33.333333,9.803922,Null,1,2
-4.235294,-19.764706,62.117647,0.541176,0.337255,-0.196078,-84.313725,13.72549,33.333333,Null,1,2
-7.058824,-19.764706,63.529412,0.494118,0.258824,-0.321569,-88.235294,21.568627,56.862745,Null,1,2
-8.470588,-18.352941,66.352941,0.27451,-0.023529,-0.572549,-37.254902,17.647059,60.784314,Null,1,2
-7.058824,-18.352941,67.764706,0.14902,0.101961,-0.886275,9.803922,49.019608,49.019608,Null,1,2
-8.470588,-15.529412,70.588235,0.086275,-0.054902,-0.807843,-49.019608,68.627451,76.470588,Null,1,2
-9.882353,-12.705882,72,-0.039216,-0.086275,-0.854902,-17.647059,68.627451,64.705882,Null,1,2
-9.882353,-9.882353,74.823529,-0.4,0.023529,-0.337255,1.960784,64.705882,64.705882,Null,1,2
-8.470588,-8.470588,76.235294,-0.27451,-0.133333,-0.352941,21.568627,41.176471,52.941176,Null,1,2
-8.470588,-7.058824,77.647059,-0.196078,-0.180392,-0.164706,25.490196,25.490196,37.254902,Null,1,2
-5.647059,-7.058824,77.647059,-0.164706,-0.196078,0.023529,56.862745,-13.72549,21.568627,Null,1,2
-4.235294,-7.058824,79.058824,-0.164706,-0.211765,-0.086275,56.862745,-13.72549,9.803922,Null,1,2
-2.823529,-7.058824,79.058824,-0.133333,-0.196078,0.305882,33.333333,9.803922,1.960784,Null,0,2
-2.823529,-5.647059,79.058824,-0.086275,-0.227451,0.321569,33.333333,-1.960784,-9.803922,Null,0,2
0,-5.647059,77.647059,-0.070588,-0.164706,0.337255,21.568627,5.882353,-13.72549,Null,0,2
0,-5.647059,77.647059,-0.039216,-0.086275,0.384314,1.960784,5.882353,-13.72549,Null,0,2
0,-5.647059,77.647059,-0.023529,-0.054902,0.101961,17.647059,-9.803922,-13.72549,Null,0,2
2.823529,-4.235294,76.235294,0.352941,0.054902,-0.054902,72.54902,37.254902,-29.411765,Null,0,2
1.411765,-5.647059,76.235294,-0.007843,-0.086275,0.14902,-33.333333,-33.333333,-5.882353,Null,0,2
1.411765,-5.647059,76.235294,-0.007843,-0.007843,-0.117647,-1.960784,1.960784,-1.960784,Null,0,2
2.823529,-5.647059,76.235294,0.007843,-0.070588,-0.101961,33.333333,-9.803922,-9.803922,Null,0,2
2.823529,-5.647059,76.235294,0.572549,0.054902,-0.196078,13.72549,41.176471,-5.882353,Null,0,2
1.411765,-5.647059,76.235294,0.007843,-0.101961,0.086275,-29.411765,-1.960784,1.960784,Null,0,2
1.411765,-4.235294,76.235294,0.039216,-0.14902,0.745098,-13.72549,1.960784,-9.803922,Null,0,2
1.411765,-7.058824,74.823529,0.070588,-0.180392,0.698039,5.882353,-72.54902,-13.72549,Null,0,2
0,-8.470588,74.823529,0.211765,-0.117647,0.290196,-37.254902,-29.411765,-5.882353,Null,0,2
-4.235294,-7.058824,76.235294,0.352941,-0.180392,0.635294,-100,37.254902,5.882353,Null,0,2
-8.470588,-7.058824,76.235294,0.431373,-0.039216,0.713725,-115.686275,-5.882353,9.803922,Null,0,2
-9.882353,-9.882353,76.235294,0.4,0.243137,-0.023529,-72.54902,-68.627451,13.72549,Null,1,2
-9.882353,-12.705882,77.647059,0.27451,0.415686,-0.65098,-29.411765,-60.784314,29.411765,Null,1,2
-8.470588,-12.705882,79.058824,0.196078,0.196078,-1.152941,-29.411765,-5.882353,52.941176,Null,1,2
-9.882353,-11.294118,81.882353,0.054902,0.086275,-0.933333,-72.54902,33.333333,72.54902,Null,1,2
-9.882353,-11.294118,84.705882,-0.039216,-0.023529,-0.807843,-29.411765,17.647059,64.705882,Null,1,2
-8.470588,-9.882353,86.117647,-0.117647,-0.086275,-0.729412,37.254902,-1.960784,60.784314,Null,1,2
-8.470588,-9.882353,87.529412,-0.086275,-0.196078,-0.870588,52.941176,-9.803922,56.862745,Null,1,2
-7.058824,-8.470588,88.941176,-0.227451,-0.14902,-0.776471,52.941176,17.647059,41.176471,Null,1,2
-5.647059,-7.058824,91.764706,-0.321569,-0.054902,-0.196078,33.333333,37.254902,52.941176,Null,1,2
-4.235294,-5.647059,91.764706,-0.133333,-0.27451,-0.007843,33.333333,17.647059,33.333333,Null,1,2
0,-4.235294,93.176471,-0.243137,-0.133333,0.196078,80.392157,21.568627,21.568627,Null,1,2
1.411765,-4.235294,93.176471,-0.211765,-0.258824,0.478431,72.54902,17.647059,5.882353,Null,1,2
2.823529,-2.823529,93.176471,-0.196078,-0.196078,0.494118,29.411765,17.647059,9.803922,Null,1,2
2.823529,-2.823529,93.176471,-0.196078,-0.164706,0.65098,25.490196,-9.803922,-1.960784,Null,1,2
4.235294,-4.235294,93.176471,-0.164706,-0.196078,0.337255,37.254902,-29.411765,-5.882353,Null,1,2
5.647059,-2.823529,93.176471,-0.101961,-0.070588,0.117647,25.490196,1.960784,-13.72549,Null,1,2
5.647059,-2.823529,93.176471,-0.054902,-0.023529,0.039216,-1.960784,17.647059,-5.882353,Null,0,2
5.647059,0,93.176471,0.054902,-0.070588,0.572549,17.647059,29.411765,-13.72549,Null,0,2
7.058824,-2.823529,93.176471,-0.117647,-0.086275,0.007843,41.176471,-29.411765,-1.960784,Null,0,2
7.058824,-2.823529,93.176471,-0.070588,-0.023529,0.054902,9.803922,-25.490196,-5.882353,Null,0,2
7.058824,-2.823529,93.176471,-0.023529,0.007843,0.007843,-9.803922,-1.960784,1.960784,Null,0,2
5.647059,-2.823529,93.176471,-0.007843,0.023529,0.007843,-13.72549,1.960784,-1.960784,Null,0,2
5.647059,-2.823529,93.176471,-0.039216,-0.117647,0.305882,-17.647059,9.803922,5.882353,Null,0,2
4.235294,-2.823529,93.176471,-0.023529,-0.101961,0.509804,-25.490196,-29.411765,-1.960784,Null,0,2
4.235294,-4.235294,93.176471,0.086275,-0.14902,0.415686,-9.803922,-41.176471,-1.960784,Null,0,2
1.411765,-5.647059,93.176471,0.164706,-0.243137,0.52549,-52.941176,-5.882353,5.882353,Null,0,2
-2.823529,-5.647059,93.176471,0.290196,-0.14902,0.839216,-88.235294,-9.803922,1.960784,Null,0,2
-5.647059,-7.058824,93.176471,0.321569,0.023529,0.635294,-84.313725,-49.019608,-1.960784,Null,0,2
-5.647059,-11.294118,93.176471,0.290196,0.227451,-0.039216,-41.176471,-107.843137,5.882353,Null,0,2
-5.647059,-14.117647,94.588235,0.180392,0.211765,-0.807843,1.960784,-115.686275,13.72549,Null,0,2
-2.823529,-12.705882,96,0.101961,0.258824,-1.278431,-1.960784,-45.098039,33.333333,Null,0,2
0,-14.117647,97.411765,-0.023529,0.180392,-1.090196,-45.098039,13.72549,60.784314,Null,0,2
0,-11.294118,98.823529,-0.14902,-0.023529,-0.917647,-13.72549,25.490196,56.862745,Null,0,0
0,-9.882353,101.647059,-0.541176,0.054902,-0.227451,21.568627,25.490196,45.098039,Null,0,0
1.411765,-7.058824,103.058824,-0.14902,-0.070588,-0.698039,29.411765,33.333333,45.098039,Null,0,0
2.823529,-5.647059,104.470588,-0.305882,-0.070588,-0.258824,33.333333,41.176471,45.098039,Null,0,0
2.823529,-4.235294,105.882353,-0.164706,-0.258824,-0.054902,33.333333,56.862745,33.333333,Null,0,0
4.235294,0,105.882353,-0.290196,-0.305882,0.321569,49.019608,41.176471,17.647059,Null,0,0
5.647059,0,105.882353,-0.227451,-0.337255,0.52549,45.098039,17.647059,1.960784,Null,0,0
5.647059,1.411765,105.882353,-0.243137,-0.305882,0.572549,33.333333,9.803922,-9.803922,Null,0,0
7.058824,1.411765,104.470588,-0.227451,-0.27451,0.556863,21.568627,1.960784,-25.490196,Null,0,0
7.058824,1.411765,104.470588,-0.243137,-0.180392,0.462745,13.72549,-1.960784,-33.333333,Null,0,0
7.058824,1.411765,103.058824,-0.258824,-0.117647,0.305882,-1.960784,-17.647059,-41.176471,Null,0,0
5.647059,0,101.647059,-0.196078,-0.117647,0.039216,-9.803922,-29.411765,-49.019608,Null,0,0
5.647059,0,98.823529,-0.227451,-0.054902,-0.196078,-5.882353,-25.490196,-56.862745,Null,0,0
5.647059,0,97.411765,-0.180392,-0.007843,-0.133333,-1.960784,-17.647059,-60.784314,Null,0,0
5.647059,-2.823529,94.588235,-0.164706,-0.007843,-0.211765,1.960784,-13.72549,-68.627451,Null,0,0
5.647059,0,93.176471,-0.133333,-0.023529,-0.196078,-5.882353,1.960784,-68.627451,Null,0,0
4.235294,0,90.352941,-0.101961,-0.070588,-0.180392,-21.568627,21.568627,-76.470588,Null,1,0
2.823529,1.411765,87.529412,-0.039216,-0.054902,0.086275,-37.254902,25.490196,-80.392157,Null,1,0
2.823529,1.411765,84.705882,-0.007843,-0.007843,0.007843,-5.882353,1.960784,-84.313725,Null,1,0
2.823529,1.411765,81.882353,0.054902,0.023529,0.039216,13.72549,-1.960784,-92.156863,Null,1,0
2.823529,1.411765,79.058824,0.117647,0.023529,0.007843,-1.960784,-5.882353,-84.313725,Null,1,0
2.823529,0,76.235294,0.180392,0.039216,-0.039216,-5.882353,1.960784,-80.392157,Null,1,0
2.823529,0,74.823529,0.243137,0.117647,0.086275,1.960784,-9.803922,-76.470588,Null,1,0
4.235294,-2.823529,72,0.258824,0.196078,-0.054902,9.803922,-17.647059,-60.784314,Null,1,0
4.235294,-2.823529,70.588235,0.305882,0.133333,-0.117647,1.960784,-1.960784,-45.098039,Null,1,0
4.235294,-2.823529,70.588235,0.27451,0.070588,-0.101961,-17.647059,17.647059,-33.333333,Null,1,0
2.823529,0,69.176471,0.258824,0.117647,-0.007843,-25.490196,25.490196,-13.72549,Null,1,0
2.823529,0,69.176471,0.243137,-0.023529,0.14902,-1.960784,5.882353,-17.647059,Null,1,0
2.823529,-2.823529,69.176471,0.180392,0.039216,0.023529,5.882353,-9.803922,-5.882353,Null,1,0
2.823529,-2.823529,69.176471,0.14902,-0.023529,-0.039216,1.960784,-5.882353,1.960784,Null,1,0
2.823529,-2.823529,69.176471,0.117647,-0.070588,-0.039216,1.960784,-5.882353,5.882353,Null,1,0
2.823529,-2.823529,69.176471,0.101961,-0.086275,-0.054902,-1.960784,-1.960784,1.960784,Null,1,0
2.823529,-2.823529,69.176471,0.086275,-0.039216,-0.039216,-1.960784,1.960784,1.960784,Null,1,0
2.823529,0,69.176471,-0.227451,-0.039216,0.431373,5.882353,33.333333,-1.960784,Null,1,0
2.823529,0,69.176471,-0.007843,-0.039216,0.14902,-1.960784,-1.960784,1.960784,Null,1,0
2.823529,0,70.588235,0.023529,0.007843,-0.117647,9.803922,-9.803922,5.882353,Null,1,0
4.235294,0,70.588235,0.039216,-0.086275,-0.243137,13.72549,29.411765,9.803922,Null,1,0
5.647059,1.411765,70.588235,0.164706,-0.196078,-0.368627,68.627451,33.333333,-5.882353,Null,1,0
5.647059,1.411765,70.588235,0.007843,0.007843,0.117647,-1.960784,-9.803922,-1.960784,Null,1,0
5.647059,1.411765,70.588235,-0.007843,-0.007843,-0.007843,-1.960784,-1.960784,-1.960784,Null,1,0
5.647059,1.411765,70.588235,-0.007843,-0.007843,-0.023529,-1.960784,-1.960784,-1.960784,Null,1,0
5.647059,1.411765,70.588235,-0.007843,-0.007843,-0.007843,-1.960784,-1.960784,-1.960784,Null,1,0
4.235294,1.411765,70.588235,-0.007843,0.007843,-0.007843,-1.960784,-1.960784,-1.960784,Null,1,0
4.235294,0,70.588235,-0.007843,-0.007843,0.007843,-1.960784,-1.960784,-1.960784,Null,1,0
4.235294,1.411765,70.588235,-0.007843,0.007843,0.007843,-1.960784,1.960784,-1.960784,Null,1,0
4.235294,1.411765,70.588235,-0.023529,0.007843,0.023529,-1.960784,1.960784,-1.960784,Null,1,0
4.235294,1.411765,70.588235,0.007843,0.007843,-0.007843,-1.960784,-1.960784,-1.960784,Null,1,0
4.235294,1.411765,70.588235,-0.039216,-0.007843,0.023529,1.960784,-1.960784,-1.960784,Null,1,0
4.235294,1.411765,70.588235,-0.007843,0.007843,-0.007843,-1.960784,-1.960784,-1.960784,Null,2,0
4.235294,1.411765,70.588235,-0.007843,-0.007843,-0.007843,-1.960784,-1.960784,-1.960784,Null,2,0
4.235294,1.411765,70.588235,-0.007843,-0.007843,-0.007843,-1.960784,-1.960784,-1.960784,Null,2,0
4.235294,1.411765,70.588235,-0.007843,-0.007843,-0.007843,-1.960784,-1.960784,-1.960784,Null,2,0
4.235294,0,70.588235,-0.007843,0.007843,-0.007843,-1.960784,-1.960784,-1.960784,Null,2,0
4.235294,0,70.588235,-0.007843,0.007843,-0.007843,-1.960784,-1.960784,-1.960784,Null,2,0
4.235294,0,70.588235,-0.007843,-0.007843,-0.007843,-1.960784,-1.960784,-1.960784,Null,2,0
4.235294,0,70.588235,-0.007843,0.007843,0.007843,-1.960784,-1.960784,-1.960784,Null,2,0
4.235294,0,70.588235,-0.007843,-0.007843,0.007843,-1.960784,-1.960784,-1.960784,Null,2,0
4.235294,0,70.588235,-0.007843,-0.007843,-0.007843,-1.960784,-1.960784,-1.960784,Null,2,0
2.823529,0,70.588235,-0.007843,0.007843,-0.007843,-1.960784,-1.960784,-1.960784,Null,2,0
2.823529,0,70.588235,-0.007843,-0.007843,-0.007843,-1.960784,-1.960784,-1.960784,Null,2,0
2.823529,0,70.588235,-0.007843,-0.007843,-0.023529,-1.960784,-1.960784,-1.960784,Null,2,0
2.823529,0,70.588235,-0.007843,-0.007843,-0.007843,-1.960784,-1.960784,-1.960784,Null,2,0
2.823529,0,70.588235,-0.007843,0.007843,-0.007843,-1.960784,-1.960784,-1.960784,Null,2,0
2.823529,0,70.588235,-0.007843,-0.007843,-0.007843,-1.960784,-1.960784,-1.960784,Null,2,0
2.823529,0,70.588235,-0.007843,-0.007843,-0.007843,-1.960784,-1.960784,-1.960784,Null,2,0
2.823529,0,70.588235,-0.007843,-0.007843,-0.023529,-1.960784,-1.960784,-1.960784,Null,2,0
2.823529,0,70.588235,-0.007843,-0.007843,0.007843,-1.960784,-1.960784,-1.960784,Null,2,0
2.823529,0,70.588235,-0.007843,-0.007843,-0.023529,-1.960784,-1.960784,-1.960784,Null,2,0
2.823529,0,70.588235,-0.007843,-0.007843,-0.007843,-1.960784,-1.960784,-1.960784,Null,2,0
2.823529,0,70.588235,-0.007843,-0.007843,-0.007843,-1.960784,-1.960784,-1.960784,Null,2,0
2.823529,0,70.588235,-0.007843,0.007843,-0.007843,-1.960784,-1.960784,-1.960784,Null,2,0
2.823529,0,70.588235,-0.007843,0.007843,-0.023529,-1.960784,-1.960784,-1.960784,Null,2,0
2.823529,0,70.588235,-0.007843,0.007843,-0.007843,-1.960784,-1.960784,-1.960784,Null,2,0
2.823529,0,70.588235,-0.007843,0.007843,-0.007843,-1.960784,-1.960784,-1.960784,Null,2,0
2.823529,0,70.588235,-0.007843,-0.007843,-0.023529,-1.960784,-1.960784,-1.960784,Null,2,0
2.823529,0,70.588235,-0.007843,0.007843,-0.007843,-1.960784,-1.960784,-1.960784,Null,2,0
2.823529,0,70.588235,-0.007843,-0.007843,0.023529,-1.960784,-1.960784,-1.960784,Null,2,0
2.823529,0,70.588235,-0.007843,-0.007843,0.007843,-1.960784,-1.960784,-1.960784,Null,2,0
2.823529,0,70.588235,-0.007843,-0.007843,-0.007843,-1.960784,-1.960784,-1.960784,Null,2,0
2.823529,0,70.588235,-0.007843,0.007843,-0.007843,-1.960784,-1.960784,-1.960784,Null,2,0
2.823529,0,70.588235,-0.023529,-0.007843,-0.007843,-1.960784,-1.960784,-1.960784,Null,2,2
2.823529,0,70.588235,-0.007843,-0.023529,0.039216,1.960784,-17.647059,-1.960784,Null,2,2
2.823529,0,70.588235,-0.070588,0.023529,0.180392,-1.960784,5.882353,-1.960784,Null,2,2
2.823529,0,70.588235,-0.007843,0.007843,0.039216,-1.960784,-1.960784,-1.960784,Null,2,2
2.823529,0,70.588235,-0.007843,-0.007843,0.007843,-1.960784,-1.960784,-1.960784,Null,2,2
1.411765,0,70.588235,-0.007843,0.007843,-0.007843,-1.960784,-1.960784,-1.960784,Null,2,2
1.411765,0,70.588235,-0.007843,0.007843,-0.007843,-1.960784,-1.960784,-1.960784,Null,2,2
1.411765,0,70.588235,-0.007843,0.007843,-0.007843,-1.960784,-1.960784,-1.960784,Null,2,2
1.411765,0,70.588235,-0.007843,-0.007843,-0.007843,-1.960784,-1.960784,-1.960784,Null,2,2
1.411765,0,70.588235,0.007843,-0.007843,-0.007843,-1.960784,-1.960784,-1.960784,Null,2,2
1.411765,0,70.588235,-0.007843,0.007843,-0.007843,-1.960784,-1.960784,-1.960784,Null,2,2
1.411765,0,70.588235,0.007843,0.007843,-0.023529,-1.960784,-1.960784,-1.960784,Null,2,2
1.411765,0,70.588235,-0.007843,0.007843,-0.007843,-1.960784,-1.960784,-1.960784,Null,2,2
1.411765,0,70.588235,-0.007843,-0.007843,-0.007843,-1.960784,-1.960784,-1.960784,Null,2,2
1.411765,0,70.588235,-0.007843,0.007843,-0.023529,-1.960784,-1.960784,-1.960784,Null,2,2
1.411765,0,70.588235,-0.007843,0.007843,-0.007843,-1.960784,-1.960784,-1.960784,Null,2,2
1.411765,0,70.588235,0.007843,-0.007843,-0.039216,-1.960784,-1.960784,-1.960784,Null,2,2
1.411765,0,70.588235,-0.007843,0.007843,-0.007843,-1.960784,-1.960784,-1.960784,Null,2,2
1.411765,0,70.588235,-0.007843,-0.007843,-0.023529,-1.960784,-1.960784,-1.960784,Null,2,2
1.411765,0,70.588235,-0.007843,0.007843,-0.007843,-1.960784,-1.960784,-1.960784,Null,2,2
1.411765,0,70.588235,-0.007843,-0.007843,-0.007843,-1.960784,-1.960784,-1.960784,Null,2,2
1.411765,0,70.588235,0.007843,0.023529,-0.023529,-1.960784,-1.960784,-1.960784,Null,2,2
1.411765,0,70.588235,-0.007843,-0.007843,-0.023529,-1.960784,-1.960784,-1.960784,Null,2,2
1.411765,0,70.588235,-0.007843,-0.007843,-0.007843,-1.960784,-1.960784,-1.960784,Null,2,2
1.411765,0,70.588235,-0.007843,-0.007843,-0.007843,-1.960784,-1.960784,-1.960784,Null,2,2
1.411765,0,70.588235,-0.007843,0.007843,-0.007843,-1.960784,-1.960784,-1.960784,Null,2,2
1.411765,0,70.588235,-0.007843,0.007843,-0.007843,-1.960784,-1.960784,-1.960784,Null,2,2
1.411765,0,70.588235,-0.007843,0.007843,-0.007843,-1.960784,-1.960784,-1.960784,Null,2,2
1.411765,0,70.588235,-0.007843,0.007843,0.007843,-1.960784,-1.960784,-1.960784,Null,2,2
1.411765,0,70.588235,-0.007843,0.007843,0.007843,-1.960784,-1.960784,-1.960784,Null,2,2
1.411765,0,70.588235,-0.007843,-0.007843,-0.023529,-1.960784,-1.960784,-1.960784,Null,2,2
1.411765,0,70.588235,-0.007843,0.007843,-0.007843,-1.960784,-1.960784,-1.960784,Null,2,2
1.411765,0,70.588235,-0.007843,-0.007843,-0.007843,-1.960784,-1.960784,-1.960784,Null,2,2
1.411765,0,70.588235,-0.007843,0.007843,-0.007843,-1.960784,-1.960784,-1.960784,Null,2,2
1.411765,0,70.588235,-0.007843,-0.007843,-0.007843,-1.960784,-1.960784,-1.960784,Null,2,2
1.411765,0,70.588235,-0.007843,-0.007843,0.007843,-1.960784,1.960784,-1.960784,Null,2,2
1.411765,0,70.588235,-0.007843,0.007843,0.007843,-1.960784,-1.960784,-1.960784,Null,2,2
1.411765,0,70.588235,0.007843,0.007843,-0.039216,-1.960784,-1.960784,-1.960784,Null,2,2
1.411765,0,70.588235,-0.007843,0.007843,-0.007843,-1.960784,-1.960784,-1.960784,Null,2,2
1.411765,0,70.588235,-0.007843,0.007843,-0.007843,-1.960784,-1.960784,-1.960784,Null,2,2
1.411765,0,70.588235,-0.007843,0.007843,-0.007843,-1.960784,-1.960784,-1.960784,Null,2,2
1.411765,0,70.588235,-0.007843,0.007843,-0.023529,-1.960784,-1.960784,-1.960784,Null,2,2
1.411765,0,70.588235,-0.007843,-0.007843,-0.007843,-1.960784,-1.960784,-1.960784,Null,2,2
1.411765,0,70.588235,-0.007843,-0.007843,-0.007843,-1.960784,-1.960784,-1.960784,Null,2,2
1.411765,0,70.588235,-0.007843,0.007843,-0.023529,-1.960784,-1.960784,-1.960784,Null,2,2
1.411765,0,70.588235,-0.007843,0.007843,-0.007843,-1.960784,-1.960784,-1.960784,Null,2,2
1.411765,0,70.588235,-0.007843,0.007843,-0.007843,-1.960784,-1.960784,-1.960784,Null,2,2
1.411765,0,70.588235,-0.007843,0.007843,-0.007843,-1.960784,-1.960784,-1.960784,Null,2,2
1.411765,0,70.588235,-0.007843,0.007843,-0.007843,-1.960784,-1.960784,-1.960784,Null,2,2
1.411765,0,70.588235,-0.007843,0.007843,-0.007843,-1.960784,-1.960784,-1.960784,Null,2,2
1.411765,0,70.588235,-0.007843,0.007843,-0.007843,-1.960784,-1.960784,-1.960784,Null,2,2
0,0,70.588235,-0.039216,-0.007843,0.054902,-1.960784,-1.960784,-1.960784,Null,2,2
0,0,70.588235,-0.007843,-0.007843,-0.007843,-1.960784,-1.960784,-1.960784,Null,2,2
0,0,70.588235,-0.007843,0.007843,-0.007843,-1.960784,-1.960784,-1.960784,Null,2,2
0,0,70.588235,-0.007843,0.007843,-0.007843,-1.960784,-1.960784,-1.960784,Null,2,2
0,0,70.588235,-0.007843,-0.007843,-0.007843,-1.960784,-1.960784,-1.960784,Null,2,2
0,0,70.588235,-0.007843,0.007843,-0.007843,-1.960784,-1.960784,-1.960784,Null,2,2
0,0,70.588235,-0.007843,-0.007843,-0.007843,-1.960784,-1.960784,-1.960784,Null,2,2
0,0,70.588235,-0.007843,0.007843,-0.007843,-1.960784,-1.960784,-1.960784,Null,2,2
0,0,70.588235,-0.007843,0.007843,-0.007843,-1.960784,-1.960784,-1.960784,Null,2,2
0,0,70.588235,-0.007843,-0.007843,-0.007843,-1.960784,-1.960784,-1.960784,Null,2,2
0,0,70.588235,-0.007843,-0.007843,-0.007843,-1.960784,-1.960784,-1.960784,Null,2,2
0,0,70.588235,-0.007843,-0.007843,-0.007843,-1.960784,-1.960784,-1.960784,Null,2,2
0,0,70.588235,-0.007843,0.007843,-0.007843,-1.960784,-1.960784,-1.960784,Null,2,2
0,0,70.588235,-0.007843,-0.007843,-0.007843,-1.960784,-1.960784,-1.960784,Null,2,2
0,0,70.588235,-0.007843,-0.007843,-0.007843,-1.960784,-1.960784,-1.960784,Null,2,2
0,0,70.588235,-0.007843,0.007843,0.007843,-1.960784,-1.960784,-1.960784,Null,2,2
0,0,70.588235,-0.007843,-0.007843,-0.007843,-1.960784,-1.960784,-1.960784,Null,2,2
0,0,70.588235,-0.007843,0.007843,-0.007843,-1.960784,-1.960784,-1.960784,Null,2,2
0,0,70.588235,-0.007843,0.007843,-0.007843,-1.960784,-1.960784,-1.960784,Null,2,2
0,0,70.588235,-0.007843,0.007843,-0.007843,-1.960784,-1.960784,-1.960784,Null,2,2
0,0,70.588235,-0.007843,0.007843,-0.007843,-1.960784,-1.960784,-1.960784,Null,2,2
0,0,70.588235,-0.007843,-0.007843,-0.007843,-1.960784,-1.960784,-1.960784,Null,2,2
0,0,70.588235,-0.007843,-0.007843,-0.007843,-1.960784,-1.960784,-1.960784,Null,2,2
0,0,70.588235,-0.007843,0.007843,-0.007843,-1.960784,-1.960784,-1.960784,Null,2,2
0,0,70.588235,-0.007843,0.007843,-0.007843,-1.960784,-1.960784,-1.960784,Null,2,2
0,0,70.588235,-0.007843,-0.007843,-0.007843,-1.960784,-1.960784,-1.960784,Null,2,2
0,0,70.588235,-0.007843,-0.007843,-0.007843,-1.960784,-1.960784,-1.960784,Null,2,2
0,0,70.588235,-0.007843,-0.007843,-0.007843,-1.960784,-1.960784,-1.960784,Null,2,2
0,0,70.588235,-0.007843,0.007843,-0.007843,-1.960784,-1.960784,-1.960784,Null,2,2
0,-2.823529,70.588235,-0.007843,0.007843,-0.007843,-1.960784,-1.960784,-1.960784,Null,2,2
0,-2.823529,70.588235,-0.007843,0.007843,-0.007843,-1.960784,-1.960784,-1.960784,Null,2,2
0,-2.823529,70.588235,-0.007843,0.007843,-0.007843,-1.960784,-1.960784,-1.960784,Null,2,2
0,-2.823529,70.588235,-0.007843,0.007843,-0.007843,-1.960784,-1.960784,-1.960784,Null,2,2
0,-2.823529,70.588235,-0.007843,0.007843,-0.007843,-1.960784,-1.960784,-1.960784,Null,2,2
0,-2.823529,70.588235,-0.007843,0.007843,-0.007843,-1.960784,-1.960784,-1.960784,Null,2,2
0,-2.823529,70.588235,-0.007843,0.007843,-0.007843,-1.960784,-1.960784,-1.960784,Null,2,2
0,-2.823529,70.588235,-0.007843,0.007843,-0.007843,-1.960784,-1.960784,-1.960784,Null,2,2
0,-2.823529,70.588235,-0.007843,0.007843,-0.007843,-1.960784,-1.960784,-1.960784,Null,2,2
0,-2.823529,70.588235,-0.007843,-0.007843,-0.007843,-1.960784,-1.960784,-1.960784,Null,2,2
0,-2.823529,70.588235,-0.007843,0.007843,-0.007843,-1.960784,-1.960784,-1.960784,Null,2,2
0,-2.823529,70.588235,-0.007843,-0.007843,-0.007843,-1.960784,-1.960784,-1.960784,Null,2,2
0,-2.823529,70.588235,-0.007843,-0.007843,-0.007843,-1.960784,-1.960784,-1.960784,Null,2,2
0,-2.823529,70.588235,-0.007843,-0.007843,-0.007843,-1.960784,-1.960784,-1.960784,Null,2,2
0,-2.823529,70.588235,-0.007843,0.007843,-0.007843,-1.960784,-1.960784,-1.960784,Null,2,2
0,-2.823529,70.588235,-0.007843,-0.007843,-0.023529,-1.960784,-1.960784,-1.960784,Null,2,2
0,-2.823529,70.588235,-0.007843,-0.007843,0.007843,-1.960784,-1.960784,-1.960784,Null,2,2
0,-2.823529,70.588235,-0.023529,0.023529,0.070588,-1.960784,-1.960784,-1.960784,Null,2,2
0,-2.823529,70.588235,0.007843,0.007843,-0.039216,-1.960784,-1.960784,-1.960784,Null,2,2
0,-2.823529,70.588235,-0.007843,0.007843,-0.023529,-1.960784,-1.960784,-1.960784,Null,2,2
0,-2.823529,70.588235,-0.007843,-0.007843,-0.007843,-1.960784,-1.960784,-1.960784,Null,2,2
0,-2.823529,70.588235,0.007843,-0.007843,-0.007843,-1.960784,-1.960784,-1.960784,Null,2,2
0,-2.823529,70.588235,-0.007843,-0.007843,-0.039216,-1.960784,-1.960784,-1.960784,Null,2,2
0,-2.823529,70.588235,-0.007843,0.007843,0.007843,-1.960784,-1.960784,-1.960784,Null,2,2
0,-2.823529,70.588235,-0.007843,0.007843,0.023529,-1.960784,-1.960784,-1.960784,Null,2,2
0,-2.823529,70.588235,-0.023529,0.007843,0.039216,-1.960784,-1.960784,-1.960784,Null,2,2
0,-2.823529,70.588235,0.007843,-0.007843,-0.007843,-1.960784,-1.960784,-1.960784,Null,2,2
0,-2.823529,70.588235,-0.007843,0.007843,0.007843,-5.882353,-5.882353,-1.960784,Null,2,2
0,-2.823529,70.588235,0.007843,-0.007843,-0.023529,-5.882353,-1.960784,-5.882353,Null,2,2
0,-2.823529,70.588235,-0.007843,-0.007843,-0.039216,-5.882353,-1.960784,-1.960784,Null,2,2
0,-2.823529,70.588235,-0.070588,-0.054902,0.007843,-5.882353,-1.960784,5.882353,Null,2,2
0,-2.823529,70.588235,-0.070588,-0.054902,-0.054902,1.960784,-5.882353,-5.882353,Null,2,2
0,-2.823529,70.588235,-0.039216,-0.054902,0.054902,9.803922,1.960784,-9.803922,Null,2,2
0,-2.823529,69.176471,-0.007843,-0.007843,0.054902,5.882353,-9.803922,-17.647059,Null,2,2
0,-2.823529,69.176471,-0.039216,0.023529,-0.023529,9.803922,-13.72549,-9.803922,Null,2,2
0,-2.823529,69.176471,-0.023529,-0.007843,-0.070588,5.882353,-5.882353,-17.647059,Null,2,2
0,-2.823529,67.764706,0.007843,0.039216,-0.070588,-9.803922,9.803922,-13.72549,Null,2,2
0,-2.823529,67.764706,0.039216,0.070588,-0.039216,1.960784,5.882353,-9.803922,Null,2,2
0,-2.823529,67.764706,0.023529,0.023529,-0.039216,-1.960784,1.960784,-9.803922,Null,2,2
0,0,67.764706,0.007843,0.023529,-0.070588,-5.882353,9.803922,-5.882353,Null,2,2
0,0,67.764706,0.023529,0.007843,0.039216,-13.72549,9.803922,-5.882353,Null,2,2
0,0,67.764706,0.023529,0.039216,-0.007843,5.882353,-5.882353,-5.882353,Null,2,2
0,-2.823529,67.764706,0.070588,0.070588,0.054902,-13.72549,-9.803922,5.882353,Null,2,2
0,-2.823529,67.764706,0.054902,-0.054902,0.117647,-5.882353,-5.882353,1.960784,Null,2,2
0,-2.823529,67.764706,0.007843,-0.054902,-0.086275,-1.960784,1.960784,-1.960784,Null,2,2
0,0,67.764706,-0.007843,-0.007843,-0.007843,-1.960784,1.960784,-1.960784,Null,2,2
0,-2.823529,67.764706,-0.007843,-0.007843,-0.007843,-1.960784,-1.960784,-1.960784,Null,2,2
0,-2.823529,67.764706,-0.007843,0.007843,-0.023529,-1.960784,-1.960784,-1.960784,Null,2,2
0,-2.823529,67.764706,0.007843,0.007843,-0.023529,-1.960784,1.960784,-1.960784,Null,1,2
0,0,67.764706,-0.007843,-0.007843,0.007843,-1.960784,1.960784,-1.960784,Null,1,2
0,0,67.764706,-0.007843,-0.007843,0.007843,-1.960784,-1.960784,-1.960784,Null,1,2
0,0,67.764706,-0.007843,-0.007843,-0.007843,-1.960784,-5.882353,-1.960784,Null,1,2
0,-2.823529,67.764706,-0.007843,0.007843,0.007843,-1.960784,-5.882353,-1.960784,Null,1,2
0,-2.823529,67.764706,-0.007843,0.007843,-0.007843,-1.960784,-1.960784,-1.960784,Null,1,2
0,-2.823529,67.764706,-0.007843,0.007843,-0.007843,-1.960784,-1.960784,-1.960784,Null,1,2
0,-2.823529,67.764706,-0.007843,-0.007843,-0.007843,-1.960784,-1.960784,-1.960784,Null,1,2
0,-2.823529,67.764706,-0.007843,0.007843,0.007843,-1.960784,-1.960784,-1.960784,Null,1,2
0,-2.823529,67.764706,-0.023529,0.007843,0.023529,-1.960784,-1.960784,-1.960784,Null,1,2
0,-2.823529,67.764706,-0.007843,-0.007843,-0.007843,-1.960784,-1.960784,-1.960784,Null,1,2
0,-2.823529,67.764706,-0.007843,0.007843,0.023529,-1.960784,-1.960784,-1.960784,Null,1,2
0,-2.823529,67.764706,-0.007843,-0.007843,-0.007843,-1.960784,-1.960784,-1.960784,Null,1,2
0,-2.823529,67.764706,-0.007843,0.007843,-0.007843,-1.960784,-1.960784,-1.960784,Null,1,2
0,-2.823529,67.764706,-0.007843,0.007843,-0.007843,-1.960784,-1.960784,-1.960784,Null,1,2
0,-2.823529,67.764706,-0.007843,-0.007843,-0.007843,-1.960784,-1.960784,-1.960784,Null,1,2
0,-2.823529,67.764706,-0.007843,-0.007843,-0.023529,-1.960784,-1.960784,-1.960784,Null,2,2
0,-2.823529,67.764706,0.023529,-0.086275,-0.023529,-1.960784,-1.960784,-9.803922,Null,2,2
0,-2.823529,67.764706,-0.007843,-0.039216,-0.023529,-1.960784,-1.960784,-5.882353,Null,2,2
0,-2.823529,67.764706,-0.007843,-0.007843,0.007843,-1.960784,-1.960784,-5.882353,Null,2,2
0,-2.823529,67.764706,-0.007843,0.007843,-0.007843,-1.960784,-1.960784,-1.960784,Null,2,2
0,-2.823529,67.764706,-0.007843,-0.007843,-0.007843,-1.960784,-1.960784,-1.960784,Null,2,2
0,-2.823529,67.764706,-0.007843,-0.007843,-0.007843,-1.960784,-1.960784,-1.960784,Null,2,2
0,-2.823529,67.764706,-0.007843,-0.007843,-0.007843,-1.960784,-1.960784,-1.960784,Null,2,2
0,-2.823529,67.764706,-0.007843,0.007843,-0.007843,-1.960784,-1.960784,-1.960784,Null,2,2
0,-2.823529,67.764706,-0.007843,0.007843,-0.007843,-1.960784,-1.960784,-1.960784,Null,2,2
0,-2.823529,67.764706,-0.007843,-0.007843,-0.007843,-1.960784,-1.960784,-1.960784,Null,2,2
0,-2.823529,67.764706,-0.007843,0.007843,-0.007843,-1.960784,-1.960784,-1.960784,Null,2,2
0,-2.823529,67.764706,-0.007843,-0.007843,-0.007843,-1.960784,-1.960784,-1.960784,Null,2,2
0,-2.823529,67.764706,-0.007843,0.007843,-0.007843,-1.960784,-1.960784,-1.960784,Null,2,2
0,-2.823529,67.764706,-0.007843,-0.007843,-0.007843,-1.960784,-1.960784,-1.960784,Null,2,2
0,-2.823529,67.764706,-0.007843,-0.007843,-0.007843,-1.960784,-1.960784,-1.960784,Null,2,2
0,-2.823529,67.764706,-0.007843,-0.007843,-0.007843,-1.960784,-1.960784,-1.960784,Null,2,2
0,-2.823529,67.764706,-0.007843,-0.007843,-0.007843,-1.960784,-1.960784,-1.960784,Null,2,2
0,-2.823529,67.764706,-0.007843,-0.007843,-0.007843,-1.960784,-1.960784,-1.960784,Null,2,2
0,-2.823529,67.764706,-0.007843,-0.007843,-0.007843,-1.960784,-1.960784,-1.960784,Null,2,2
0,-2.823529,67.764706,-0.007843,0.007843,-0.007843,-1.960784,-1.960784,-1.960784,Null,2,2
0,-2.823529,67.764706,-0.007843,0.007843,-0.007843,-1.960784,-1.960784,-1.960784,Null,2,2
0,-2.823529,67.764706,-0.007843,-0.007843,-0.007843,-1.960784,-1.960784,-1.960784,Null,2,2
0,-2.823529,67.764706,0.007843,0.007843,-0.023529,-1.960784,1.960784,-1.960784,Null,2,2
0,0,67.764706,-0.007843,-0.007843,-0.007843,-1.960784,-1.960784,-1.960784,Null,2,2
0,0,67.764706,-0.007843,-0.007843,-0.007843,-1.960784,-1.960784,-1.960784,Null,2,2
0,-2.823529,67.764706,-0.007843,-0.007843,0.007843,-1.960784,-1.960784,-1.960784,Null,2,2
0,-2.823529,67.764706,-0.007843,-0.007843,-0.007843,-1.960784,-1.960784,-1.960784,Null,2,2
0,-2.823529,67.764706,-0.007843,-0.007843,-0.007843,-1.960784,-1.960784,-1.960784,Null,2,2
0,-2.823529,67.764706,-0.007843,-0.007843,-0.007843,-1.960784,-5.882353,-1.960784,Null,2,2
0,-2.823529,67.764706,-0.007843,-0.007843,-0.023529,-1.960784,-1.960784,-1.960784,Null,2,2
0,-2.823529,67.764706,0.007843,-0.007843,-0.023529,-1.960784,-1.960784,-1.960784,Null,2,2
0,-2.823529,67.764706,-0.007843,0.007843,-0.007843,-1.960784,-1.960784,-1.960784,Null,2,2
0,-2.823529,67.764706,-0.007843,0.007843,-0.007843,-1.960784,-1.960784,-1.960784,Null,2,2
0,-2.823529,67.764706,-0.007843,0.007843,-0.007843,-1.960784,-1.960784,-1.960784,Null,2,2
0,-2.823529,67.764706,-0.007843,-0.007843,-0.007843,-1.960784,-1.960784,-1.960784,Null,2,2
0,0,67.764706,-0.007843,0.007843,-0.023529,-1.960784,1.960784,-1.960784,Null,2,2
0,0,67.764706,-0.007843,-0.007843,0.007843,-1.960784,5.882353,-1.960784,Null,2,2
0,0,67.764706,-0.007843,-0.007843,-0.023529,1.960784,-1.960784,-1.960784,Null,2,2
0,0,67.764706,-0.023529,0.007843,-0.007843,1.960784,-1.960784,-1.960784,Null,2,2
0,0,67.764706,-0.007843,0.007843,-0.007843,1.960784,-1.960784,-1.960784,Null,2,2
0,0,67.764706,-0.023529,0.023529,-0.023529,-1.960784,-1.960784,-1.960784,Null,2,2
0,0,67.764706,-0.023529,0.007843,0.007843,-1.960784,-1.960784,-1.960784,Null,2,2
0,0,67.764706,-0.023529,0.007843,-0.007843,-5.882353,-1.960784,-1.960784,Null,2,2
0,0,67.764706,-0.007843,-0.007843,-0.007843,-5.882353,-1.960784,-1.960784,Null,2,2
0,0,67.764706,-0.023529,0.039216,0.023529,-9.803922,-5.882353,-1.960784,Null,2,2
0,0,67.764706,-0.007843,0.023529,-0.007843,-1.960784,-5.882353,-1.960784,Null,2,2
0,0,67.764706,-0.023529,0.007843,0.007843,-1.960784,-1.960784,-1.960784,Null,2,2
0,0,67.764706,-0.007843,-0.007843,-0.007843,-1.960784,-1.960784,-1.960784,Null,2,2
0,0,67.764706,-0.007843,-0.007843,-0.007843,-1.960784,-1.960784,-1.960784,Null,2,2
0,0,67.764706,-0.007843,-0.007843,-0.007843,-1.960784,-1.960784,-1.960784,Null,2,2
0,0,67.764706,-0.007843,-0.007843,-0.007843,-1.960784,-1.960784,-1.960784,Null,2,2
0,0,67.764706,-0.007843,0.007843,-0.007843,-1.960784,-1.960784,-1.960784,Null,2,2
0,-2.823529,67.764706,-0.007843,0.007843,0.007843,-1.960784,-5.882353,-1.960784,Null,2,2
0,-2.823529,67.764706,-0.007843,-0.007843,-0.023529,-1.960784,-5.882353,-1.960784,Null,2,2
0,-2.823529,67.764706,-0.007843,-0.007843,-0.023529,-1.960784,-1.960784,-1.960784,Null,2,2
0,-2.823529,67.764706,-0.007843,-0.007843,-0.007843,-1.960784,-1.960784,-1.960784,Null,2,2
0,-2.823529,67.764706,-0.007843,-0.007843,-0.023529,-1.960784,-1.960784,-1.960784,Null,2,2
0,-2.823529,67.764706,-0.007843,-0.007843,-0.007843,-1.960784,-1.960784,-1.960784,Null,2,2
0,-2.823529,67.764706,-0.007843,-0.007843,-0.007843,-1.960784,-1.960784,-1.960784,Null,2,2
0,-2.823529,67.764706,-0.007843,0.007843,-0.007843,-1.960784,-1.960784,-1.960784,Null,2,2
0,-2.823529,67.764706,-0.007843,-0.007843,-0.023529,-1.960784,-1.960784,-1.960784,Null,2,2
0,-2.823529,67.764706,-0.007843,0.007843,-0.007843,-1.960784,-1.960784,-1.960784,Null,2,2
0,-2.823529,67.764706,-0.007843,-0.007843,0.007843,-1.960784,-1.960784,-1.960784,Null,2,2
0,-2.823529,67.764706,-0.007843,-0.007843,-0.023529,-1.960784,-1.960784,-1.960784,Null,2,2
0,-2.823529,67.764706,-0.007843,0.007843,-0.007843,-1.960784,-1.960784,-1.960784,Null,2,2
0,-2.823529,67.764706,-0.007843,-0.007843,-0.007843,-1.960784,-1.960784,-1.960784,Null,2,2
0,-2.823529,67.764706,-0.007843,-0.007843,-0.007843,-1.960784,-1.960784,-1.960784,Null,2,2
0,-2.823529,67.764706,-0.007843,0.007843,0.007843,-1.960784,-1.960784,-1.960784,Null,2,2
-2.823529,-2.823529,67.764706,-0.023529,0.007843,0.007843,-13.72549,-5.882353,-1.960784,Null,2,2
-2.823529,-2.823529,67.764706,-0.007843,-0.007843,-0.007843,-5.882353,-5.882353,-1.960784,Null,2,2
-2.823529,-2.823529,67.764706,0.007843,0.007843,-0.007843,-1.960784,-5.882353,-1.960784,Null,2,2
-2.823529,-2.823529,67.764706,-0.007843,-0.007843,-0.007843,-1.960784,-5.882353,1.960784,Null,2,2
-2.823529,-2.823529,67.764706,-0.007843,-0.054902,-0.039216,-1.960784,-5.882353,-1.960784,Null,2,2
-2.823529,-2.823529,67.764706,0.023529,-0.007843,-0.054902,-1.960784,1.960784,-5.882353,Null,2,2
0,-2.823529,67.764706,0.007843,0.007843,-0.023529,1.960784,-1.960784,-1.960784,Null,2,2
0,-2.823529,67.764706,0.039216,-0.023529,-0.023529,1.960784,1.960784,1.960784,Null,2,2
0,-2.823529,67.764706,0.023529,0.023529,0.007843,-1.960784,1.960784,-1.960784,Null,2,2
0,-2.823529,67.764706,0.007843,-0.023529,-0.054902,-1.960784,5.882353,-1.960784,Null,2,2
0,-2.823529,67.764706,-0.007843,-0.007843,-0.007843,1.960784,1.960784,-1.960784,Null,2,2
0,-2.823529,67.764706,-0.007843,0.023529,0.023529,-1.960784,-1.960784,-1.960784,Null,2,2
0,-2.823529,67.764706,-0.007843,-0.007843,-0.023529,-1.960784,-1.960784,-1.960784,Null,2,2
0,-2.823529,67.764706,-0.007843,0.007843,-0.007843,-1.960784,-1.960784,-1.960784,Null,2,2
0,-2.823529,67.764706,-0.007843,-0.007843,-0.007843,-1.960784,-1.960784,-1.960784,Null,2,2
0,-2.823529,67.764706,-0.007843,-0.007843,-0.007843,-1.960784,-1.960784,-1.960784,2,2,2
0,-2.823529,67.764706,-0.007843,-0.007843,-0.007843,-1.960784,-1.960784,-1.960784,2,2,2
0,-2.823529,67.764706,-0.007843,-0.007843,-0.023529,-1.960784,-1.960784,-1.960784,2,2,2
0,-2.823529,67.764706,-0.007843,-0.007843,-0.007843,-1.960784,-1.960784,-1.960784,2,2,2
0,-2.823529,67.764706,-0.007843,-0.007843,-0.007843,-1.960784,-1.960784,-1.960784,2,2,2
0,-2.823529,67.764706,-0.007843,0.007843,-0.007843,-1.960784,-1.960784,-1.960784,2,2,2
0,-2.823529,67.764706,-0.007843,-0.007843,-0.007843,-1.960784,-1.960784,-1.960784,2,2,2
0,-2.823529,67.764706,-0.007843,0.007843,-0.007843,-1.960784,-1.960784,-1.960784,2,2,2
0,-2.823529,67.764706,-0.007843,-0.007843,-0.007843,-1.960784,-1.960784,-1.960784,2,2,2
0,-2.823529,67.764706,-0.007843,-0.007843,-0.007843,-1.960784,-1.960784,-1.960784,2,2,2
0,-2.823529,67.764706,-0.007843,-0.007843,-0.007843,-1.960784,-1.960784,-1.960784,2,2,2
0,-2.823529,67.764706,-0.007843,0.007843,-0.007843,-1.960784,-1.960784,-1.960784,2,2,2
0,-2.823529,67.764706,-0.007843,-0.007843,-0.007843,-1.960784,-1.960784,-1.960784,2,2,2
0,-2.823529,67.764706,-0.007843,-0.007843,-0.007843,-1.960784,-1.960784,-1.960784,2,2,2
0,-2.823529,67.764706,-0.007843,-0.007843,-0.007843,-1.960784,-1.960784,-1.960784,2,2,2
0,-2.823529,67.764706,-0.007843,-0.007843,-0.007843,-1.960784,-1.960784,-1.960784,2,2,2
0,-2.823529,67.764706,-0.007843,-0.007843,-0.007843,-1.960784,-1.960784,-1.960784,2,2,2
0,-2.823529,67.764706,-0.007843,-0.007843,-0.007843,-1.960784,-1.960784,-1.960784,2,2,2
0,-2.823529,67.764706,-0.007843,-0.007843,-0.007843,-1.960784,-1.960784,-1.960784,2,2,2
0,-2.823529,67.764706,-0.007843,0.007843,-0.007843,-1.960784,-1.960784,-1.960784,2,2,2
0,-2.823529,67.764706,-0.007843,-0.007843,-0.007843,-1.960784,-1.960784,-1.960784,2,2,2
0,-2.823529,67.764706,-0.007843,-0.007843,-0.007843,-1.960784,-1.960784,-1.960784,2,2,2
0,-2.823529,67.764706,-0.007843,0.007843,-0.007843,-1.960784,-1.960784,-1.960784,2,2,2
0,-2.823529,67.764706,-0.039216,-0.039216,0.086275,-1.960784,-13.72549,1.960784,2,2,2
0,-2.823529,67.764706,-0.039216,-0.086275,0.086275,17.647059,-25.490196,-1.960784,2,2,2
0,-4.235294,66.352941,-0.117647,-0.133333,0.164706,21.568627,-25.490196,-9.803922,2,2,2
0,-4.235294,66.352941,-0.054902,-0.117647,0.258824,-13.72549,-9.803922,-17.647059,2,2,2
-2.823529,-4.235294,66.352941,0.039216,-0.070588,0.352941,-29.411765,-5.882353,-21.568627,2,2,2
-2.823529,-5.647059,64.941176,0.14902,-0.070588,0.431373,-29.411765,-17.647059,-13.72549,2,1,2
-4.235294,-5.647059,64.941176,0.180392,-0.007843,0.290196,-29.411765,-29.411765,-9.803922,2,1,2
-5.647059,-7.058824,64.941176,0.211765,0.039216,0.133333,-49.019608,-25.490196,-1.960784,2,1,2
-7.058824,-7.058824,64.941176,0.227451,0.086275,-0.007843,-52.941176,-17.647059,1.960784,2,1,2
-8.470588,-8.470588,64.941176,0.258824,0.086275,-0.196078,-56.862745,-21.568627,9.803922,2,1,2
-9.882353,-9.882353,66.352941,0.243137,0.117647,-0.431373,-41.176471,-21.568627,17.647059,2,1,2
-9.882353,-9.882353,67.764706,0.196078,0.101961,-0.635294,-9.803922,-21.568627,25.490196,2,1,2
-8.470588,-11.294118,67.764706,0.14902,0.086275,-0.823529,-1.960784,5.882353,37.254902,2,1,2
-8.470588,-9.882353,70.588235,0.070588,0.070588,-0.698039,-1.960784,29.411765,45.098039,2,1,2
-7.058824,-8.470588,72,0.054902,0.023529,-0.541176,33.333333,29.411765,49.019608,2,1,2
-5.647059,-8.470588,73.411765,-0.117647,-0.101961,-0.321569,41.176471,17.647059,45.098039,2,1,2
-4.235294,-7.058824,74.823529,-0.164706,-0.133333,-0.133333,37.254902,13.72549,37.254902,2,1,2
-2.823529,-7.058824,74.823529,-0.164706,-0.133333,-0.039216,60.784314,5.882353,21.568627,2,1,2
0,-5.647059,76.235294,-0.14902,-0.164706,0.258824,33.333333,13.72549,21.568627,2,1,2
1.411765,-5.647059,76.235294,-0.180392,-0.117647,0.258824,33.333333,-5.882353,-1.960784,2,1,2
1.411765,-5.647059,76.235294,-0.117647,-0.133333,0.352941,13.72549,1.960784,-5.882353,2,1,2
1.411765,-5.647059,76.235294,-0.070588,-0.007843,0.180392,17.647059,-1.960784,-9.803922,2,0,2
2.823529,-4.235294,76.235294,-0.039216,-0.039216,0.101961,21.568627,5.882353,-5.882353,2,0,2
2.823529,-4.235294,74.823529,-0.007843,-0.023529,0.117647,9.803922,13.72549,-9.803922,2,0,2
0,-2.823529,76.235294,0.070588,0.666667,0.964706,-100,21.568627,13.72549,2,0,2
0,-4.235294,76.235294,0.101961,-0.007843,-0.211765,17.647059,-13.72549,-1.960784,2,0,2
0,-4.235294,76.235294,0.070588,0.023529,-0.101961,5.882353,5.882353,-9.803922,2,0,2
0,-2.823529,76.235294,0.007843,-0.007843,-0.258824,-17.647059,13.72549,5.882353,2,0,2
0,-2.823529,76.235294,0.039216,0.007843,-0.117647,-1.960784,-9.803922,-1.960784,2,0,2
0,-4.235294,76.235294,-0.007843,0.007843,-0.007843,-1.960784,-9.803922,9.803922,2,0,2
0,-4.235294,76.235294,0.007843,-0.023529,-0.023529,1.960784,-5.882353,1.960784,2,0,2
0,-2.823529,76.235294,-0.039216,0.039216,-0.039216,-5.882353,21.568627,1.960784,2,0,2
0,-2.823529,76.235294,-0.14902,-0.243137,0.305882,1.960784,1.960784,-5.882353,2,0,2
0,-2.823529,76.235294,-0.117647,-0.070588,0.415686,-17.647059,-17.647059,-1.960784,2,0,2
-2.823529,-2.823529,76.235294,-0.054902,-0.180392,0.635294,-21.568627,-5.882353,-5.882353,2,0,2
-4.235294,-2.823529,76.235294,0.023529,-0.258824,0.729412,-52.941176,-5.882353,-9.803922,2,0,2
-7.058824,-4.235294,76.235294,0.180392,-0.180392,0.745098,-92.156863,-21.568627,-13.72549,2,0,2
-9.882353,-5.647059,74.823529,0.290196,0.086275,0.321569,-80.392157,-64.705882,-17.647059,2,1,2
-11.294118,-8.470588,74.823529,0.305882,0.27451,-0.4,-52.941176,-76.470588,-1.960784,2,1,2
-12.705882,-11.294118,76.235294,0.290196,0.227451,-0.745098,-64.705882,-33.333333,21.568627,2,1,2
-14.117647,-11.294118,77.647059,0.164706,0.133333,-0.792157,-84.313725,1.960784,41.176471,2,1,2
-14.117647,-11.294118,79.058824,0.117647,0.039216,-0.698039,-37.254902,9.803922,41.176471,2,1,2
-14.117647,-11.294118,80.470588,0.054902,-0.023529,-0.698039,-5.882353,-9.803922,41.176471,2,1,2
-14.117647,-11.294118,81.882353,-0.039216,-0.070588,-0.807843,13.72549,-17.647059,41.176471,2,1,2
-12.705882,-11.294118,83.294118,-0.101961,-0.023529,-0.776471,45.098039,1.960784,45.098039,2,1,2
-11.294118,-9.882353,84.705882,-0.117647,-0.196078,-0.556863,56.862745,17.647059,41.176471,2,1,2
-8.470588,-8.470588,86.117647,-0.086275,-0.196078,-0.368627,60.784314,33.333333,33.333333,2,1,2
-7.058824,-7.058824,86.117647,-0.164706,-0.14902,-0.101961,64.705882,13.72549,29.411765,2,1,2
-4.235294,-5.647059,87.529412,-0.180392,-0.14902,-0.007843,64.705882,25.490196,17.647059,2,1,2
-2.823529,-5.647059,87.529412,-0.180392,-0.070588,0.133333,49.019608,25.490196,13.72549,2,1,2
0,-4.235294,87.529412,-0.211765,-0.164706,0.27451,49.019608,29.411765,5.882353,2,1,2
1.411765,-2.823529,88.941176,-0.14902,-0.133333,0.52549,41.176471,13.72549,5.882353,2,1,2
2.823529,-2.823529,88.941176,-0.164706,-0.180392,0.509804,37.254902,-17.647059,-5.882353,2,1,2
2.823529,-4.235294,87.529412,-0.117647,-0.133333,0.290196,33.333333,-21.568627,-13.72549,2,0,2
2.823529,-4.235294,87.529412,0.023529,-0.494118,-0.305882,5.882353,-1.960784,5.882353,2,0,2
2.823529,-2.823529,87.529412,0.603922,-0.117647,-0.792157,-5.882353,60.784314,-25.490196,2,0,2
2.823529,-2.823529,87.529412,0.007843,0.164706,-0.007843,-1.960784,5.882353,-5.882353,2,0,2
2.823529,-2.823529,87.529412,0.007843,0.039216,-0.007843,-1.960784,9.803922,-9.803922,2,0,2
2.823529,-2.823529,87.529412,0.023529,-0.007843,0.007843,-1.960784,-9.803922,-1.960784,2,0,2
2.823529,-2.823529,87.529412,0.023529,-0.023529,0.023529,-1.960784,1.960784,-1.960784,2,0,2
2.823529,-2.823529,87.529412,-0.007843,-0.007843,-0.007843,-1.960784,-1.960784,-1.960784,2,0,2
2.823529,-2.823529,87.529412,-0.007843,-0.007843,-0.007843,-1.960784,-1.960784,-1.960784,2,0,2
2.823529,-2.823529,87.529412,-0.007843,0.007843,-0.007843,-1.960784,-1.960784,-1.960784,2,0,2
1.411765,-2.823529,87.529412,0.007843,0.007843,-0.007843,-1.960784,-1.960784,-1.960784,2,0,2
1.411765,-2.823529,87.529412,-0.007843,0.007843,-0.007843,-1.960784,-1.960784,-1.960784,2,0,2
1.411765,-2.823529,87.529412,-0.007843,0.007843,-0.007843,-1.960784,1.960784,-1.960784,2,0,2
1.411765,-2.823529,87.529412,-0.007843,0.007843,0.023529,-5.882353,-1.960784,-1.960784,2,0,2
1.411765,-2.823529,87.529412,0.007843,-0.007843,-0.023529,-9.803922,5.882353,25.490196,2,0,2
1.411765,0,87.529412,-0.086275,-0.211765,0.4,-21.568627,5.882353,-9.803922,2,0,2
0,-2.823529,87.529412,-0.070588,-0.133333,0.541176,-1.960784,-17.647059,-13.72549,2,1,1
0,-2.823529,86.117647,0.007843,-0.211765,0.588235,-9.803922,-17.647059,-13.72549,2,1,1
-2.823529,-2.823529,86.117647,0.117647,-0.196078,0.52549,-52.941176,-9.803922,-13.72549,2,1,1
-5.647059,-4.235294,86.117647,0.243137,-0.14902,0.431373,-80.392157,-13.72549,-9.803922,2,1,1
-8.470588,-5.647059,86.117647,0.337255,0.023529,0.211765,-84.313725,-37.254902,-9.803922,2,1,1
-9.882353,-7.058824,86.117647,0.368627,0.180392,-0.196078,-76.470588,-49.019608,5.882353,2,1,1
-11.294118,-9.882353,86.117647,0.305882,0.27451,-0.556863,-56.862745,-45.098039,17.647059,2,1,1
-11.294118,-9.882353,87.529412,0.211765,0.196078,-0.823529,-41.176471,-21.568627,37.254902,2,1,1
-11.294118,-11.294118,90.352941,0.14902,0.133333,-0.823529,-25.490196,1.960784,49.019608,2,1,1
-11.294118,-11.294118,91.764706,0.023529,0.023529,-0.807843,5.882353,1.960784,56.862745,2,1,1
-9.882353,-9.882353,93.176471,-0.117647,-0.101961,-0.792157,33.333333,1.960784,52.941176,2,1,1
-8.470588,-8.470588,94.588235,-0.196078,-0.101961,-0.666667,37.254902,17.647059,52.941176,2,1,1
-7.058824,-7.058824,97.411765,-0.164706,-0.133333,-0.556863,45.098039,41.176471,45.098039,2,1,1
-5.647059,-5.647059,98.823529,-0.258824,-0.211765,-0.117647,45.098039,37.254902,41.176471,2,1,1
-4.235294,-2.823529,98.823529,-0.243137,-0.164706,-0.007843,41.176471,41.176471,29.411765,2,1,1
-2.823529,0,100.235294,-0.211765,-0.211765,0.243137,52.941176,33.333333,21.568627,2,1,1
0,0,100.235294,-0.180392,-0.117647,0.290196,68.627451,1.960784,9.803922,2,0,1
1.411765,0,100.235294,-0.196078,-0.133333,0.290196,33.333333,9.803922,9.803922,2,0,1
2.823529,0,100.235294,-0.14902,-0.070588,0.4,49.019608,-9.803922,1.960784,2,0,1
4.235294,0,100.235294,-0.180392,-0.133333,0.305882,25.490196,-5.882353,1.960784,2,0,1
4.235294,0,100.235294,-0.101961,-0.086275,0.290196,9.803922,-9.803922,-9.803922,2,0,1
4.235294,-4.235294,100.235294,0.352941,-0.054902,-0.14902,25.490196,-60.784314,-13.72549,2,0,1
4.235294,-4.235294,100.235294,0.180392,0.007843,-0.164706,-13.72549,-1.960784,-9.803922,2,0,1
4.235294,-4.235294,100.235294,0.054902,0.023529,-0.101961,-1.960784,-1.960784,-1.960784,2,0,1
4.235294,-4.235294,100.235294,-0.180392,-0.023529,0.180392,-1.960784,-5.882353,-9.803922,2,0,1
4.235294,-4.235294,100.235294,-0.054902,0.023529,0.039216,-5.882353,-9.803922,-1.960784,2,0,1
4.235294,-4.235294,100.235294,-0.023529,-0.007843,0.007843,-1.960784,-5.882353,-1.960784,2,0,1
4.235294,-4.235294,100.235294,-0.007843,-0.007843,-0.007843,-1.960784,-1.960784,-1.960784,2,0,1
4.235294,-4.235294,100.235294,0.007843,-0.007843,-0.023529,-1.960784,-1.960784,-1.960784,2,0,1
4.235294,-4.235294,100.235294,-0.007843,-0.007843,-0.007843,-1.960784,-1.960784,-1.960784,2,0,1
2.823529,-4.235294,100.235294,-0.007843,-0.007843,-0.007843,-1.960784,-1.960784,-1.960784,2,0,1
2.823529,-4.235294,100.235294,-0.007843,0.007843,-0.007843,-1.960784,-1.960784,-1.960784,2,0,1
2.823529,-4.235294,100.235294,-0.007843,-0.007843,-0.007843,-1.960784,-1.960784,-1.960784,2,1,1
2.823529,-4.235294,100.235294,-0.007843,0.007843,-0.007843,-1.960784,-1.960784,-1.960784,2,1,1
2.823529,-4.235294,100.235294,-0.070588,-0.039216,0.023529,-1.960784,-9.803922,-1.960784,2,1,1
1.411765,-4.235294,100.235294,-0.164706,-0.117647,0.180392,-37.254902,1.960784,13.72549,2,1,1
1.411765,-4.235294,100.235294,-0.133333,-0.101961,0.698039,-25.490196,-5.882353,-5.882353,2,1,1
1.411765,-4.235294,100.235294,-0.101961,-0.258824,0.588235,5.882353,-41.176471,-17.647059,2,1,1
0,-5.647059,98.823529,-0.023529,-0.243137,0.494118,-25.490196,-29.411765,-21.568627,2,1,1
-4.235294,-5.647059,98.823529,0.180392,-0.258824,0.603922,-84.313725,-9.803922,-17.647059,2,1,1
-7.058824,-7.058824,97.411765,0.321569,-0.086275,0.415686,-72.54902,-49.019608,-25.490196,2,1,1
-7.058824,-11.294118,97.411765,0.384314,0.054902,-0.101961,-37.254902,-80.392157,-21.568627,2,1,1
-8.470588,-12.705882,97.411765,0.4,0.211765,-0.603922,-45.098039,-60.784314,-5.882353,2,1,1
-9.882353,-15.529412,97.411765,0.447059,0.211765,-0.901961,-52.941176,-25.490196,17.647059,2,1,1
-9.882353,-15.529412,98.823529,0.290196,0.211765,-0.886275,-33.333333,1.960784,41.176471,2,1,1
-9.882353,-15.529412,100.235294,0.196078,0.086275,-0.792157,-17.647059,9.803922,49.019608,2,1,1
-8.470588,-15.529412,103.058824,0.086275,0.039216,-0.713725,13.72549,5.882353,56.862745,2,1,1
-7.058824,-15.529412,104.470588,-0.007843,-0.023529,-0.65098,41.176471,13.72549,56.862745,2,1,1
-7.058824,-12.705882,105.882353,-0.101961,-0.117647,-0.556863,33.333333,29.411765,52.941176,2,0,1
-5.647059,-11.294118,107.294118,-0.164706,-0.070588,-0.352941,25.490196,52.941176,52.941176,2,0,1
-4.235294,-9.882353,110.117647,-0.133333,-0.14902,0.039216,37.254902,45.098039,45.098039,2,0,1
-2.823529,-8.470588,110.117647,-0.227451,-0.133333,0.14902,56.862745,9.803922,37.254902,2,0,1
1.411765,-8.470588,111.529412,-0.211765,-0.243137,0.321569,64.705882,5.882353,21.568627,2,0,1
2.823529,-7.058824,111.529412,-0.164706,-0.133333,0.27451,56.862745,-5.882353,13.72549,2,0,1
4.235294,-7.058824,112.941176,-0.164706,-0.101961,0.243137,37.254902,9.803922,13.72549,2,0,1
4.235294,-5.647059,112.941176,-0.117647,-0.101961,0.211765,29.411765,17.647059,5.882353,2,0,1
4.235294,-5.647059,112.941176,-0.133333,-0.007843,0.101961,13.72549,21.568627,9.803922,2,0,1
5.647059,-4.235294,112.941176,-0.101961,-0.070588,0.196078,5.882353,33.333333,5.882353,2,0,1
5.647059,-4.235294,112.941176,-0.180392,0.023529,-0.14902,41.176471,-37.254902,-13.72549,2,0,1
5.647059,-5.647059,112.941176,0.164706,0.196078,-0.023529,-17.647059,-21.568627,-5.882353,2,0,1
5.647059,-4.235294,112.941176,0.196078,-0.039216,-0.415686,-1.960784,29.411765,-9.803922,2,0,1
5.647059,-4.235294,112.941176,-0.086275,0.007843,0.039216,-1.960784,-1.960784,-1.960784,2,0,1
5.647059,-4.235294,112.941176,-0.054902,0.007843,0.039216,-1.960784,-5.882353,-1.960784,2,0,1
5.647059,-4.235294,112.941176,-0.023529,0.007843,-0.007843,-1.960784,-1.960784,-1.960784,2,0,1
5.647059,-4.235294,112.941176,-0.007843,-0.007843,-0.007843,-1.960784,-1.960784,-1.960784,2,1,1
5.647059,-4.235294,112.941176,0.007843,-0.007843,-0.023529,-1.960784,-1.960784,-1.960784,2,1,1
5.647059,-4.235294,112.941176,-0.007843,0.007843,-0.007843,-1.960784,-1.960784,-1.960784,2,1,1
5.647059,-4.235294,112.941176,-0.007843,0.007843,-0.007843,-1.960784,-1.960784,-1.960784,2,1,1
4.235294,-4.235294,112.941176,0.007843,0.007843,-0.007843,-1.960784,-1.960784,-1.960784,2,1,1
4.235294,-4.235294,112.941176,-0.007843,0.007843,0.007843,-1.960784,-1.960784,-1.960784,2,1,1
4.235294,-4.235294,112.941176,-0.007843,0.054902,-0.039216,-5.882353,-1.960784,-1.960784,2,1,1
4.235294,-4.235294,112.941176,0.039216,-0.023529,0.14902,-21.568627,13.72549,9.803922,2,1,1
2.823529,-4.235294,112.941176,0.054902,-0.101961,0.65098,-29.411765,1.960784,9.803922,2,1,1
2.823529,-4.235294,114.352941,0.133333,-0.164706,0.635294,-5.882353,-29.411765,5.882353,2,1,1
1.411765,-5.647059,114.352941,0.196078,-0.133333,0.4,-29.411765,-45.098039,9.803922,2,1,1
0,-7.058824,114.352941,0.27451,-0.086275,0.14902,-56.862745,-41.176471,17.647059,2,1,1
-4.235294,-8.470588,115.764706,0.290196,0.007843,-0.117647,-56.862745,-45.098039,21.568627,2,1,1
-4.235294,-11.294118,117.176471,0.243137,0.164706,-0.447059,-45.098039,-52.941176,33.333333,2,1,1
-4.235294,-12.705882,118.588235,0.133333,0.14902,-0.713725,-25.490196,-37.254902,49.019608,2,1,1
-4.235294,-12.705882,120,-0.007843,0.180392,-0.854902,-5.882353,-5.882353,56.862745,2,1,1
-2.823529,-11.294118,122.823529,-0.101961,0.133333,-0.792157,1.960784,29.411765,64.705882,2,1,1
-2.823529,-8.470588,124.235294,-0.211765,0.054902,-0.603922,9.803922,45.098039,60.784314,2,1,1
0,-7.058824,125.647059,-0.211765,0.039216,-0.243137,52.941176,37.254902,45.098039,2,1,1
2.823529,-5.647059,127.058824,-0.243137,-0.101961,-0.007843,52.941176,17.647059,45.098039,2,1,1
2.823529,-4.235294,128.470588,-0.27451,-0.211765,0.133333,37.254902,25.490196,33.333333,2,1,1
4.235294,-2.823529,129.882353,-0.243137,-0.227451,0.290196,25.490196,29.411765,21.568627,2,1,1
4.235294,-2.823529,129.882353,-0.164706,-0.180392,0.368627,33.333333,13.72549,1.960784,2,1,1
5.647059,-2.823529,129.882353,-0.117647,-0.101961,0.258824,41.176471,-13.72549,-1.960784,2,1,1
7.058824,-2.823529,129.882353,-0.101961,-0.101961,0.164706,21.568627,-1.960784,-5.882353,2,1,1
5.647059,-2.823529,129.882353,0.117647,0.039216,-0.101961,-9.803922,13.72549,1.960784,2,1,1
5.647059,-2.823529,129.882353,0.180392,0.117647,-0.086275,-5.882353,1.960784,-1.960784,2,1,1
5.647059,-2.823529,129.882353,0.070588,-0.007843,-0.070588,-5.882353,1.960784,-1.960784,2,1,1
5.647059,-2.823529,129.882353,0.039216,-0.054902,-0.039216,-1.960784,-1.960784,-5.882353,2,1,1
5.647059,-2.823529,129.882353,-0.023529,0.023529,0.023529,-1.960784,-5.882353,-5.882353,2,1,1
5.647059,-2.823529,129.882353,-0.039216,0.007843,0.039216,-1.960784,-9.803922,-1.960784,2,1,1
5.647059,-2.823529,129.882353,0.007843,-0.007843,0.007843,-1.960784,-1.960784,-1.960784,2,1,1
5.647059,-2.823529,129.882353,0.023529,0.007843,-0.039216,-1.960784,1.960784,-1.960784,2,1,1
5.647059,-2.823529,129.882353,0.007843,0.039216,-0.023529,-1.960784,1.960784,-1.960784,2,1,1
4.235294,-2.823529,129.882353,-0.007843,0.007843,0.007843,-1.960784,-1.960784,-1.960784,2,1,1
4.235294,-2.823529,129.882353,-0.007843,-0.007843,0.007843,-1.960784,-1.960784,-1.960784,2,1,1
4.235294,-2.823529,129.882353,-0.007843,0.007843,-0.007843,-1.960784,-1.960784,-1.960784,2,1,1
4.235294,-2.823529,129.882353,-0.007843,0.007843,-0.007843,-1.960784,-1.960784,-1.960784,2,1,1
4.235294,-2.823529,129.882353,-0.007843,0.007843,-0.007843,-1.960784,-1.960784,-1.960784,2,1,1
4.235294,-2.823529,129.882353,-0.007843,-0.007843,-0.007843,-1.960784,-1.960784,-1.960784,2,1,1
4.235294,-2.823529,129.882353,-0.007843,0.007843,-0.007843,-1.960784,-1.960784,-1.960784,2,1,1
4.235294,-2.823529,129.882353,0.007843,0.007843,-0.023529,-1.960784,1.960784,-1.960784,2,1,1
4.235294,-2.823529,128.470588,-0.007843,0.039216,0.007843,-1.960784,1.960784,-13.72549,2,1,1
4.235294,-2.823529,128.470588,-0.007843,-0.007843,-0.007843,-5.882353,-1.960784,-1.960784,2,1,1
2.823529,0,129.882353,-0.023529,-0.054902,0.133333,-21.568627,25.490196,9.803922,2,1,1
1.411765,0,129.882353,-0.007843,-0.164706,0.839216,-33.333333,13.72549,9.803922,2,1,1
1.411765,0,129.882353,-0.133333,-0.196078,0.964706,-29.411765,-25.490196,1.960784,2,1,1
-2.823529,-2.823529,129.882353,-0.211765,-0.243137,0.964706,-56.862745,-52.941176,-9.803922,2,1,1
-4.235294,-7.058824,128.470588,-0.243137,-0.164706,0.666667,-72.54902,-103.921569,-29.411765,2,1,1
-7.058824,-9.882353,127.058824,-0.321569,-0.070588,0.054902,-60.784314,-143.137255,-52.941176,2,1,1
-7.058824,-14.117647,125.647059,-0.352941,0.14902,-0.635294,-49.019608,-131.372549,-64.705882,2,1,1
-5.647059,-9.882353,122.823529,-0.196078,0.180392,-1.2,-49.019608,-76.470588,-56.862745,2,1,1
-11.294118,-9.882353,121.411765,-0.101961,-0.007843,-1.32549,-52.941176,5.882353,-49.019608,2,1,1
-8.470588,-11.294118,120,0.039216,0.086275,-1.215686,-5.882353,52.941176,-56.862745,2,1,1
-7.058824,-9.882353,118.588235,0.101961,0.054902,-0.886275,13.72549,80.392157,-49.019608,2,1,1
-5.647059,-7.058824,117.176471,0.196078,-0.007843,-0.666667,29.411765,84.313725,-45.098039,2,1,1
-4.235294,-4.235294,115.764706,0.054902,-0.023529,-0.070588,33.333333,107.843137,-37.254902,2,1,1
-4.235294,0,114.352941,0.352941,0.007843,0.133333,29.411765,80.392157,-29.411765,2,1,1
0,1.411765,114.352941,0.290196,-0.039216,0.368627,52.941176,41.176471,-25.490196,2,1,1
1.411765,1.411765,112.941176,0.243137,-0.054902,0.384314,41.176471,29.411765,-25.490196,2,1,1
1.411765,1.411765,112.941176,0.227451,-0.086275,0.305882,25.490196,5.882353,-21.568627,2,1,1
2.823529,2.823529,112.941176,0.133333,0.023529,0.117647,25.490196,21.568627,-13.72549,2,1,1
2.823529,2.823529,112.941176,0.133333,-0.086275,0.384314,17.647059,25.490196,-5.882353,2,1,1
2.823529,2.823529,111.529412,0.070588,-0.054902,0.27451,5.882353,-5.882353,-13.72549,2,1,1
4.235294,2.823529,111.529412,-0.007843,0.007843,0.070588,13.72549,1.960784,-9.803922,2,0,1
1.411765,4.235294,112.941176,0.227451,0.556863,-0.086275,-80.392157,33.333333,25.490196,2,0,1
1.411765,4.235294,111.529412,0.243137,-0.258824,-0.117647,5.882353,9.803922,-29.411765,2,0,1
1.411765,2.823529,111.529412,0.070588,0.007843,-0.101961,-1.960784,1.960784,-1.960784,2,0,1
1.411765,2.823529,111.529412,-0.007843,0.007843,0.007843,-1.960784,-1.960784,-1.960784,2,0,1
1.411765,2.823529,111.529412,-0.023529,-0.007843,-0.007843,-1.960784,-1.960784,-1.960784,2,0,1
1.411765,2.823529,111.529412,-0.007843,0.007843,-0.007843,-1.960784,-1.960784,-1.960784,2,0,1
1.411765,2.823529,111.529412,-0.007843,-0.007843,-0.007843,-1.960784,-1.960784,-1.960784,2,0,1
1.411765,2.823529,111.529412,-0.007843,0.007843,-0.007843,-1.960784,-1.960784,-1.960784,2,0,1
1.411765,2.823529,111.529412,0.007843,0.007843,-0.007843,-1.960784,1.960784,-1.960784,2,0,1
1.411765,2.823529,111.529412,-0.007843,0.039216,-0.007843,-1.960784,1.960784,-5.882353,2,0,1
1.411765,2.823529,111.529412,-0.007843,0.023529,-0.023529,-1.960784,5.882353,-1.960784,2,0,1
1.411765,2.823529,111.529412,-0.007843,0.007843,-0.007843,-1.960784,-1.960784,-1.960784,2,0,1
0,4.235294,111.529412,-0.086275,-0.054902,0.164706,-17.647059,9.803922,13.72549,2,0,1
0,2.823529,111.529412,0.023529,-0.117647,0.541176,-17.647059,-17.647059,-9.803922,2,0,1
0,1.411765,111.529412,-0.086275,-0.133333,0.52549,5.882353,-60.784314,-25.490196,2,0,1
0,-2.823529,110.117647,-0.117647,-0.117647,0.447059,-1.960784,-72.54902,-45.098039,2,1,1
0,-4.235294,108.705882,-0.14902,-0.117647,0.211765,-13.72549,-60.784314,-49.019608,2,1,1
-2.823529,-4.235294,105.882353,-0.243137,-0.023529,0.086275,-45.098039,-29.411765,-52.941176,2,1,1
-5.647059,-5.647059,105.882353,-0.133333,-0.054902,0.14902,-80.392157,-13.72549,-29.411765,2,1,1
-7.058824,-7.058824,104.470588,-0.086275,-0.133333,0.007843,-52.941176,-52.941176,-49.019608,2,1,1
-8.470588,-8.470588,101.647059,-0.086275,0.054902,-0.556863,-21.568627,-72.54902,-68.627451,2,1,1
-8.470588,-9.882353,100.235294,0.086275,0.117647,-0.870588,-25.490196,-33.333333,-49.019608,2,1,1
-7.058824,-11.294118,98.823529,0.180392,0.101961,-0.996078,-5.882353,-9.803922,-52.941176,2,1,1
-4.235294,-14.117647,97.411765,0.227451,0.196078,-1.043137,1.960784,49.019608,-45.098039,2,1,1
-2.823529,-11.294118,97.411765,0.243137,0.243137,-0.619608,5.882353,80.392157,-13.72549,2,1,1
-2.823529,-8.470588,97.411765,0.321569,0.054902,-0.27451,9.803922,80.392157,-5.882353,2,1,1
-2.823529,-7.058824,97.411765,0.337255,0.070588,0.023529,-1.960784,56.862745,5.882353,2,1,1
-2.823529,-5.647059,97.411765,0.227451,-0.054902,0.101961,5.882353,52.941176,5.882353,2,1,1
0,-4.235294,97.411765,0.196078,-0.086275,0.305882,13.72549,52.941176,9.803922,2,1,1
0,-4.235294,97.411765,0.14902,-0.101961,0.415686,25.490196,13.72549,5.882353,2,1,1
1.411765,-2.823529,98.823529,0.070588,-0.196078,0.352941,25.490196,1.960784,5.882353,2,1,1
1.411765,-4.235294,98.823529,0.054902,-0.039216,0.290196,9.803922,-1.960784,-1.960784,2,0,1
1.411765,-4.235294,98.823529,0.023529,-0.023529,0.086275,5.882353,-9.803922,1.960784,2,0,1
1.411765,-4.235294,98.823529,0.007843,-0.007843,-0.086275,5.882353,1.960784,5.882353,2,0,1
1.411765,-2.823529,98.823529,-0.007843,-0.054902,0.007843,-1.960784,21.568627,5.882353,2,0,1
1.411765,-2.823529,98.823529,-0.007843,-0.007843,0.039216,1.960784,9.803922,1.960784,2,0,1
1.411765,-2.823529,98.823529,0.164706,-0.054902,-0.007843,-1.960784,-17.647059,1.960784,2,0,1
1.411765,-2.823529,98.823529,0.14902,-0.007843,0.086275,1.960784,1.960784,-5.882353,2,0,1
1.411765,-2.823529,98.823529,0.054902,0.007843,-0.054902,1.960784,1.960784,-1.960784,2,0,1
1.411765,-2.823529,98.823529,0.023529,0.007843,-0.023529,-1.960784,-1.960784,-1.960784,2,0,1
1.411765,-2.823529,98.823529,0.007843,0.007843,-0.039216,-1.960784,1.960784,-1.960784,2,0,1
1.411765,-2.823529,98.823529,-0.007843,-0.007843,-0.023529,-1.960784,5.882353,-1.960784,2,0,1
1.411765,-2.823529,98.823529,-0.023529,-0.007843,0.023529,-1.960784,1.960784,-1.960784,2,0,1
1.411765,-2.823529,98.823529,-0.007843,0.007843,-0.007843,-1.960784,-1.960784,-1.960784,2,0,1
1.411765,-2.823529,98.823529,-0.007843,-0.007843,-0.007843,-1.960784,-1.960784,-1.960784,2,0,1
1.411765,-2.823529,98.823529,-0.007843,0.007843,-0.007843,1.960784,1.960784,-1.960784,2,0,1
1.411765,-2.823529,98.823529,-0.039216,-0.007843,0.007843,-17.647059,-5.882353,13.72549,2,0,1
1.411765,0,100.235294,0.054902,-0.007843,0.054902,5.882353,17.647059,9.803922,2,1,1
0,1.411765,100.235294,0.039216,-0.070588,0.509804,-21.568627,49.019608,21.568627,2,1,1
0,0,100.235294,0.023529,-0.180392,0.698039,-21.568627,-13.72549,1.960784,2,1,1
-2.823529,0,100.235294,-0.086275,-0.196078,0.823529,-29.411765,-41.176471,-9.803922,2,1,1
-4.235294,-4.235294,100.235294,-0.180392,-0.180392,0.792157,-60.784314,-68.627451,-17.647059,2,1,1
-7.058824,-7.058824,98.823529,-0.227451,-0.086275,0.541176,-72.54902,-103.921569,-29.411765,2,1,1
-9.882353,-11.294118,97.411765,-0.27451,-0.133333,0.14902,-64.705882,-131.372549,-52.941176,2,1,1
-11.294118,-14.117647,96,-0.258824,0.086275,-0.415686,-68.627451,-135.294118,-56.862745,2,1,1
-12.705882,-16.941176,94.588235,-0.258824,-0.039216,-0.823529,-56.862745,-92.156863,-52.941176,2,1,1
-11.294118,-15.529412,91.764706,-0.007843,0.054902,-1.137255,-41.176471,-25.490196,-60.784314,2,1,1
-11.294118,-14.117647,90.352941,-0.054902,0.133333,-0.964706,-52.941176,33.333333,-45.098039,2,1,1
-12.705882,-12.705882,90.352941,0.101961,-0.101961,-0.760784,-37.254902,45.098039,-33.333333,2,1,1
-11.294118,-11.294118,87.529412,0.14902,-0.054902,-0.729412,13.72549,45.098039,-52.941176,2,1,1
-9.882353,-9.882353,87.529412,0.258824,0.117647,-0.494118,29.411765,64.705882,-33.333333,2,1,1
-8.470588,-8.470588,86.117647,0.290196,-0.039216,-0.478431,45.098039,49.019608,-33.333333,2,1,1
-7.058824,-5.647059,84.705882,0.321569,0.117647,-0.243137,29.411765,96.078431,-29.411765,2,1,1
-5.647059,-2.823529,86.117647,0.384314,0.180392,0.133333,21.568627,84.313725,9.803922,2,0,1
-4.235294,0,86.117647,0.352941,-0.039216,0.337255,45.098039,49.019608,5.882353,2,0,1
-2.823529,0,86.117647,0.211765,-0.023529,0.258824,49.019608,17.647059,13.72549,2,0,1
0,1.411765,86.117647,0.180392,-0.117647,0.290196,45.098039,21.568627,13.72549,2,0,1
0,1.411765,87.529412,0.086275,-0.101961,0.180392,25.490196,13.72549,9.803922,2,0,1
1.411765,1.411765,87.529412,0.039216,-0.133333,0.227451,29.411765,21.568627,9.803922,2,0,1
2.823529,1.411765,87.529412,0.039216,-0.070588,0.180392,25.490196,-1.960784,1.960784,2,0,1
2.823529,1.411765,87.529412,-0.039216,-0.117647,0.101961,9.803922,1.960784,1.960784,2,0,1
2.823529,2.823529,87.529412,-0.007843,-0.023529,0.101961,-9.803922,13.72549,1.960784,2,0,1
-2.823529,1.411765,87.529412,1.435294,-0.603922,-1.764706,-25.490196,-33.333333,-9.803922,2,0,1
-2.823529,2.823529,87.529412,-0.007843,0.070588,-0.070588,-1.960784,5.882353,-5.882353,2,0,1
-2.823529,2.823529,87.529412,-0.023529,-0.007843,-0.023529,-1.960784,-1.960784,-1.960784,2,0,1
-2.823529,2.823529,87.529412,-0.007843,0.007843,-0.023529,-1.960784,1.960784,-1.960784,2,0,1
-2.823529,2.823529,87.529412,-0.007843,-0.007843,-0.007843,-1.960784,-1.960784,-1.960784,2,0,1
-2.823529,2.823529,87.529412,-0.007843,-0.007843,-0.007843,-1.960784,-5.882353,-1.960784,2,0,1
-2.823529,2.823529,87.529412,-0.007843,0.007843,-0.023529,-1.960784,-1.960784,-1.960784,2,0,1
-2.823529,1.411765,87.529412,-0.007843,0.007843,-0.023529,-1.960784,-1.960784,-1.960784,2,1,1
-2.823529,2.823529,87.529412,-0.007843,-0.007843,-0.007843,-1.960784,1.960784,-1.960784,2,1,1
-2.823529,2.823529,87.529412,-0.007843,0.007843,-0.007843,-1.960784,-1.960784,-1.960784,2,1,1
-2.823529,1.411765,87.529412,-0.007843,0.007843,-0.007843,-1.960784,-1.960784,-1.960784,2,1,1
-2.823529,1.411765,87.529412,-0.007843,-0.007843,0.007843,-1.960784,-1.960784,-1.960784,2,1,1
-2.823529,1.411765,87.529412,-0.007843,-0.007843,-0.007843,-1.960784,-1.960784,-1.960784,2,1,1
-2.823529,1.411765,87.529412,-0.007843,-0.007843,-0.007843,-1.960784,-1.960784,-1.960784,2,1,1
-2.823529,1.411765,87.529412,-0.023529,0.007843,-0.007843,-1.960784,-1.960784,-1.960784,2,1,1
-2.823529,1.411765,87.529412,-0.007843,0.007843,-0.007843,-1.960784,-1.960784,-1.960784,2,1,1
-2.823529,2.823529,88.941176,-0.180392,0.039216,-0.070588,-5.882353,17.647059,29.411765,2,1,1
-4.235294,4.235294,90.352941,0.007843,-0.101961,0.431373,-25.490196,41.176471,33.333333,2,1,1
-4.235294,4.235294,90.352941,-0.023529,-0.258824,0.494118,-29.411765,-1.960784,13.72549,2,1,1
-5.647059,2.823529,90.352941,-0.164706,-0.27451,0.760784,-33.333333,-41.176471,1.960784,2,1,1
-7.058824,0,90.352941,-0.180392,-0.243137,0.603922,-41.176471,-72.54902,-17.647059,2,1,1
-8.470588,-2.823529,88.941176,-0.258824,-0.164706,0.227451,-49.019608,-84.313725,-33.333333,2,1,1
-9.882353,-5.647059,87.529412,-0.180392,-0.101961,0.007843,-60.784314,-76.470588,-41.176471,2,1,1
-12.705882,-7.058824,86.117647,-0.133333,-0.023529,-0.352941,-72.54902,-76.470588,-45.098039,2,1,1
-14.117647,-8.470588,84.705882,-0.133333,-0.007843,-0.635294,-68.627451,-52.941176,-45.098039,2,1,1
-16.941176,-8.470588,83.294118,-0.054902,-0.054902,-0.807843,-56.862745,-1.960784,-37.254902,2,1,1
-18.352941,-7.058824,81.882353,-0.023529,-0.086275,-0.713725,-41.176471,37.254902,-45.098039,2,1,1
-18.352941,-5.647059,80.470588,0.070588,-0.117647,-0.619608,-37.254902,41.176471,-49.019608,2,1,1
-18.352941,-4.235294,79.058824,0.101961,-0.007843,-0.619608,-5.882353,33.333333,-56.862745,2,1,1
-18.352941,-2.823529,76.235294,0.196078,-0.039216,-0.478431,21.568627,49.019608,-60.784314,2,1,1
-16.941176,0,74.823529,0.258824,0.054902,-0.337255,21.568627,49.019608,-52.941176,2,1,1
-16.941176,1.411765,73.411765,0.243137,0.007843,0.023529,-5.882353,76.470588,-37.254902,2,1,1
-15.529412,1.411765,72,0.384314,0.086275,0.337255,25.490196,25.490196,-41.176471,2,1,1
-12.705882,1.411765,72,0.290196,-0.086275,0.14902,60.784314,-9.803922,-33.333333,2,1,1
-11.294118,1.411765,70.588235,0.243137,-0.211765,0.101961,29.411765,-9.803922,-37.254902,2,1,1
-11.294118,1.411765,69.176471,0.211765,0.054902,0.054902,-5.882353,17.647059,-21.568627,2,1,1
-11.294118,1.411765,70.588235,0.133333,-0.14902,0.070588,25.490196,13.72549,5.882353,2,1,1
-11.294118,2.823529,70.588235,0.054902,-0.290196,0.180392,5.882353,21.568627,9.803922,2,1,1
-9.882353,2.823529,70.588235,0.039216,-0.14902,0.196078,17.647059,-1.960784,5.882353,2,1,1
-8.470588,1.411765,70.588235,0.039216,-0.227451,0.086275,33.333333,-9.803922,1.960784,2,1,1
-8.470588,1.411765,70.588235,0.054902,-0.054902,-0.007843,25.490196,-9.803922,1.960784,2,1,1
-7.058824,2.823529,70.588235,0.054902,-0.117647,0.305882,37.254902,52.941176,-5.882353,2,1,1
-5.647059,2.823529,70.588235,-0.305882,0.133333,0.101961,17.647059,-17.647059,-5.882353,2,1,1
-5.647059,2.823529,70.588235,-0.039216,-0.007843,-0.007843,1.960784,1.960784,5.882353,2,1,1
-5.647059,4.235294,70.588235,0.039216,-0.070588,-0.290196,17.647059,33.333333,1.960784,2,1,1
-4.235294,5.647059,70.588235,-0.509804,-0.039216,0.964706,17.647059,33.333333,-9.803922,2,1,1
-4.235294,5.647059,70.588235,0.007843,0.007843,-0.023529,1.960784,1.960784,-1.960784,2,1,1
-4.235294,5.647059,70.588235,-0.007843,-0.007843,-0.007843,-1.960784,-1.960784,-1.960784,2,1,1
-4.235294,5.647059,70.588235,-0.023529,0.007843,0.007843,-1.960784,-1.960784,-1.960784,2,1,1
-4.235294,5.647059,70.588235,-0.007843,0.007843,-0.007843,-1.960784,-1.960784,-1.960784,2,1,1
-4.235294,4.235294,70.588235,-0.007843,-0.007843,-0.007843,-1.960784,-1.960784,-1.960784,2,1,1
-4.235294,4.235294,70.588235,-0.007843,-0.007843,-0.007843,-1.960784,-1.960784,-1.960784,2,1,1
-4.235294,4.235294,70.588235,-0.007843,-0.007843,-0.007843,-1.960784,-1.960784,-1.960784,2,1,1
-4.235294,4.235294,70.588235,-0.007843,0.007843,-0.007843,-1.960784,-1.960784,-1.960784,2,1,1
-4.235294,4.235294,70.588235,-0.007843,-0.007843,-0.007843,-1.960784,-1.960784,-1.960784,2,1,1
-4.235294,4.235294,70.588235,-0.007843,-0.007843,-0.007843,-1.960784,-1.960784,-1.960784,2,2,1
-4.235294,4.235294,70.588235,-0.007843,-0.007843,-0.023529,-1.960784,-1.960784,-1.960784,2,2,1
-4.235294,4.235294,70.588235,-0.007843,-0.007843,-0.007843,-1.960784,-1.960784,-1.960784,2,2,1
-4.235294,4.235294,70.588235,-0.007843,0.007843,-0.007843,-5.882353,-1.960784,-1.960784,2,2,1
-4.235294,4.235294,72,-0.007843,0.054902,0.117647,-5.882353,-5.882353,17.647059,2,2,1
-4.235294,4.235294,72,-0.039216,-0.180392,0.258824,-21.568627,-1.960784,1.960784,2,2,1
-5.647059,2.823529,72,0.101961,-0.101961,0.854902,-33.333333,-13.72549,-1.960784,2,2,1
-5.647059,1.411765,72,0.180392,0.054902,0.572549,-21.568627,-52.941176,-5.882353,2,2,1
-5.647059,-2.823529,72,0.227451,0.227451,-0.023529,-9.803922,-68.627451,5.882353,2,2,1
-5.647059,-4.235294,72,0.211765,0.211765,-0.447059,-9.803922,-37.254902,21.568627,2,2,1
-5.647059,-4.235294,74.823529,0.180392,0.117647,-0.52549,-21.568627,-5.882353,45.098039,2,2,1
-5.647059,-4.235294,76.235294,0.117647,-0.023529,-0.478431,-13.72549,1.960784,49.019608,2,2,1
-5.647059,-4.235294,77.647059,0.039216,-0.007843,-0.478431,9.803922,1.960784,45.098039,2,2,1
-5.647059,-4.235294,79.058824,-0.070588,-0.070588,-0.541176,5.882353,13.72549,45.098039,2,2,1
-5.647059,-2.823529,80.470588,-0.117647,-0.086275,-0.415686,5.882353,33.333333,37.254902,2,2,1
-5.647059,0,80.470588,-0.133333,-0.14902,-0.180392,9.803922,33.333333,25.490196,2,2,1
-5.647059,1.411765,81.882353,-0.164706,-0.086275,-0.117647,9.803922,25.490196,17.647059,2,1,1
-4.235294,1.411765,81.882353,-0.14902,-0.117647,0.117647,29.411765,13.72549,5.882353,2,1,1
-2.823529,1.411765,81.882353,-0.133333,-0.133333,0.133333,17.647059,-5.882353,1.960784,2,1,1
-2.823529,1.411765,81.882353,-0.086275,-0.007843,0.133333,21.568627,-5.882353,-1.960784,2,1,1
0,1.411765,81.882353,-0.070588,-0.070588,0.023529,45.098039,-1.960784,-9.803922,2,1,1
0,2.823529,81.882353,-0.039216,-0.007843,0.117647,5.882353,17.647059,-5.882353,2,1,1
-4.235294,-14.117647,86.117647,1.984314,0.635294,-0.494118,-123.529412,-500,111.764706,2,1,1
-4.235294,-12.705882,84.705882,-0.321569,0.196078,-0.211765,9.803922,9.803922,-9.803922,2,1,1
-4.235294,-12.705882,84.705882,-0.164706,-0.023529,0.086275,-1.960784,-1.960784,-5.882353,2,1,1
-4.235294,-12.705882,84.705882,-0.101961,-0.023529,0.086275,-1.960784,1.960784,-9.803922,2,1,1
-4.235294,-11.294118,84.705882,0.054902,0.007843,-0.023529,-1.960784,1.960784,-1.960784,2,1,1
-4.235294,-11.294118,84.705882,0.007843,-0.007843,-0.007843,-1.960784,-5.882353,-1.960784,2,1,1
-4.235294,-11.294118,84.705882,-0.007843,0.007843,-0.023529,-1.960784,-1.960784,-1.960784,2,1,1
-4.235294,-11.294118,84.705882,-0.023529,0.007843,-0.007843,-1.960784,-1.960784,-1.960784,2,1,1
-4.235294,-11.294118,84.705882,-0.007843,0.007843,-0.007843,-1.960784,-1.960784,-1.960784,2,1,1
-2.823529,-11.294118,84.705882,-0.007843,0.007843,-0.007843,-1.960784,-1.960784,-1.960784,2,1,1
-2.823529,-11.294118,84.705882,0.007843,0.007843,-0.007843,-1.960784,-1.960784,-1.960784,2,0,1
-2.823529,-11.294118,84.705882,-0.007843,-0.007843,-0.007843,-1.960784,-1.960784,-1.960784,2,0,1
-2.823529,-9.882353,84.705882,-0.007843,0.007843,-0.007843,-1.960784,-1.960784,-1.960784,2,0,1
-2.823529,-9.882353,84.705882,-0.007843,-0.007843,-0.007843,-1.960784,-1.960784,-1.960784,2,0,1
-2.823529,-9.882353,84.705882,-0.007843,0.007843,-0.007843,-5.882353,-1.960784,-1.960784,2,0,1
-4.235294,-9.882353,84.705882,0.023529,0.054902,0.023529,-9.803922,-1.960784,1.960784,2,0,1
-4.235294,-9.882353,84.705882,0.007843,-0.101961,0.227451,-5.882353,13.72549,1.960784,2,0,1
-4.235294,-9.882353,84.705882,0.070588,-0.086275,0.509804,-17.647059,-9.803922,5.882353,2,0,1
-4.235294,-11.294118,84.705882,0.101961,-0.070588,0.447059,-9.803922,-41.176471,-1.960784,2,0,1
-4.235294,-11.294118,86.117647,0.133333,-0.023529,0.258824,-13.72549,-45.098039,1.960784,2,0,1
-5.647059,-12.705882,86.117647,0.14902,0.054902,0.070588,-25.490196,-33.333333,5.882353,2,0,1
-7.058824,-12.705882,86.117647,0.14902,0.007843,-0.023529,-60.784314,-17.647059,17.647059,2,0,1
-8.470588,-14.117647,87.529412,0.133333,0.023529,-0.164706,-45.098039,-33.333333,13.72549,2,0,1
-8.470588,-15.529412,87.529412,0.101961,0.054902,-0.4,-21.568627,-41.176471,21.568627,2,0,1
-8.470588,-16.941176,88.941176,0.086275,0.023529,-0.556863,1.960784,-33.333333,25.490196,2,0,1
-8.470588,-16.941176,88.941176,0.023529,-0.007843,-0.745098,13.72549,-13.72549,21.568627,2,0,1
-7.058824,-15.529412,90.352941,-0.007843,-0.054902,-0.619608,1.960784,33.333333,25.490196,2,1,1
-7.058824,-14.117647,91.764706,-0.039216,-0.054902,-0.384314,9.803922,41.176471,21.568627,2,1,1
-7.058824,-11.294118,91.764706,-0.086275,-0.070588,-0.27451,17.647059,41.176471,21.568627,2,1,1
-5.647059,-11.294118,93.176471,-0.086275,-0.070588,-0.086275,45.098039,25.490196,17.647059,2,1,1
-4.235294,-9.882353,93.176471,-0.133333,-0.054902,0.039216,29.411765,25.490196,13.72549,2,1,1
-4.235294,-8.470588,93.176471,-0.117647,-0.101961,0.243137,13.72549,25.490196,5.882353,2,1,1
-2.823529,-7.058824,93.176471,-0.117647,-0.070588,0.27451,25.490196,9.803922,-1.960784,2,1,1
-2.823529,-7.058824,93.176471,-0.117647,-0.070588,0.258824,13.72549,9.803922,-1.960784,2,1,1
0,-7.058824,93.176471,-0.054902,-0.070588,0.227451,13.72549,-1.960784,-5.882353,2,1,1
-2.823529,-15.529412,94.588235,0.996078,0.321569,0.133333,-33.333333,-256.862745,33.333333,2,1,1
-2.823529,-15.529412,94.588235,0.368627,-0.023529,-0.180392,-5.882353,17.647059,-1.960784,2,1,1
-2.823529,-15.529412,94.588235,0.180392,0.070588,-0.007843,1.960784,-1.960784,-1.960784,2,1,1
-2.823529,-15.529412,94.588235,-0.007843,-0.007843,-0.039216,-1.960784,1.960784,-1.960784,2,1,1
-2.823529,-15.529412,94.588235,-0.039216,-0.007843,0.023529,-1.960784,-1.960784,-1.960784,2,1,1
-2.823529,-14.117647,94.588235,-0.007843,-0.007843,-0.007843,-1.960784,-5.882353,-1.960784,2,1,1
-2.823529,-14.117647,94.588235,-0.023529,-0.007843,-0.007843,-1.960784,1.960784,-1.960784,2,1,1
-2.823529,-14.117647,94.588235,0.007843,0.007843,-0.023529,-1.960784,-1.960784,-1.960784,2,1,1
-2.823529,-14.117647,94.588235,-0.007843,0.007843,0.007843,-1.960784,-1.960784,-1.960784,2,1,1
-2.823529,-14.117647,94.588235,-0.007843,0.007843,-0.007843,-1.960784,-1.960784,-1.960784,2,1,1
-2.823529,-14.117647,94.588235,-0.007843,0.007843,-0.007843,-1.960784,-1.960784,-1.960784,2,1,1
-2.823529,-12.705882,94.588235,-0.007843,0.007843,-0.007843,-1.960784,-1.960784,-1.960784,2,1,1
-2.823529,-12.705882,94.588235,-0.007843,0.007843,-0.007843,-1.960784,-1.960784,-1.960784,2,1,1
-2.823529,-12.705882,94.588235,-0.007843,0.007843,-0.007843,-1.960784,-1.960784,-1.960784,2,1,1
-2.823529,-12.705882,94.588235,-0.007843,-0.007843,-0.007843,-1.960784,-1.960784,-1.960784,2,1,1
-2.823529,-12.705882,94.588235,-0.007843,0.007843,-0.007843,-1.960784,-1.960784,-1.960784,2,1,1
-2.823529,-12.705882,94.588235,-0.007843,0.007843,-0.007843,-1.960784,-1.960784,-1.960784,2,1,1
-2.823529,-11.294118,94.588235,-0.007843,0.007843,-0.007843,-1.960784,-1.960784,-1.960784,2,1,1
-2.823529,-11.294118,94.588235,-0.007843,0.007843,-0.007843,-1.960784,-1.960784,-1.960784,2,1,1
-2.823529,-11.294118,94.588235,-0.007843,0.007843,0.007843,-1.960784,-1.960784,-1.960784,2,1,1
-2.823529,-11.294118,94.588235,-0.007843,-0.039216,-0.023529,-5.882353,-1.960784,-1.960784,2,1,1
-2.823529,-11.294118,94.588235,-0.007843,0.023529,0.086275,-9.803922,-9.803922,1.960784,2,1,1
-2.823529,-11.294118,94.588235,0.023529,-0.14902,0.227451,-1.960784,-17.647059,1.960784,2,1,1
-2.823529,-14.117647,94.588235,0.133333,-0.086275,0.666667,-5.882353,-60.784314,-1.960784,2,2,1
-4.235294,-15.529412,94.588235,0.243137,-0.180392,0.431373,-21.568627,-68.627451,-9.803922,2,2,1
-5.647059,-18.352941,94.588235,0.337255,-0.070588,0.227451,-37.254902,-60.784314,-1.960784,2,2,1
-5.647059,-19.764706,94.588235,0.384314,0.054902,0.054902,-29.411765,-45.098039,5.882353,2,2,1
-7.058824,-21.176471,94.588235,0.4,0.117647,-0.070588,-33.333333,-72.54902,13.72549,2,2,1
-7.058824,-24,96,0.258824,0.258824,-0.572549,-21.568627,-84.313725,21.568627,2,2,1
-4.235294,-24,97.411765,0.070588,0.196078,-1.043137,5.882353,-33.333333,37.254902,2,2,1
-2.823529,-21.176471,98.823529,-0.086275,0.117647,-0.94902,17.647059,41.176471,33.333333,2,2,1
0,-18.352941,100.235294,-0.117647,0.054902,-0.776471,5.882353,64.705882,52.941176,2,2,1
1.411765,-15.529412,101.647059,-0.196078,-0.086275,-0.462745,33.333333,68.627451,49.019608,2,2,1
1.411765,-12.705882,103.058824,-0.196078,-0.086275,-0.211765,33.333333,72.54902,33.333333,2,2,1
1.411765,-8.470588,104.470588,-0.196078,-0.258824,0.133333,1.960784,84.313725,33.333333,2,2,1
1.411765,-7.058824,104.470588,-0.133333,-0.227451,0.462745,1.960784,64.705882,5.882353,2,2,1
2.823529,-5.647059,104.470588,-0.070588,-0.070588,0.541176,37.254902,9.803922,-5.882353,2,2,1
4.235294,-7.058824,104.470588,-0.023529,-0.023529,0.337255,41.176471,-21.568627,-1.960784,2,2,1
4.235294,-7.058824,104.470588,-0.039216,-0.117647,0.133333,9.803922,-1.960784,-5.882353,2,2,1
4.235294,-5.647059,104.470588,-0.007843,-0.007843,0.054902,-9.803922,13.72549,-5.882353,2,0,1
4.235294,-5.647059,104.470588,-0.462745,0.039216,0.180392,-5.882353,-21.568627,-9.803922,2,0,1
4.235294,-5.647059,104.470588,-0.086275,0.039216,-0.007843,-1.960784,-1.960784,-1.960784,2,0,1
4.235294,-5.647059,104.470588,-0.070588,-0.007843,0.023529,-1.960784,-1.960784,-1.960784,2,0,1
4.235294,-5.647059,104.470588,-0.007843,0.007843,-0.007843,-1.960784,-1.960784,-1.960784,2,0,1
2.823529,-5.647059,104.470588,0.007843,0.007843,-0.007843,-1.960784,-1.960784,-1.960784,2,0,1
2.823529,-5.647059,104.470588,0.007843,-0.007843,-0.023529,-1.960784,-1.960784,-1.960784,2,0,1
2.823529,-5.647059,104.470588,-0.007843,0.007843,-0.007843,-1.960784,-1.960784,-1.960784,2,0,1
2.823529,-5.647059,104.470588,-0.007843,0.007843,-0.007843,-1.960784,-1.960784,-1.960784,2,0,1
2.823529,-5.647059,104.470588,-0.007843,-0.007843,-0.007843,-1.960784,-1.960784,-1.960784,2,0,1
2.823529,-5.647059,104.470588,-0.007843,0.007843,-0.007843,-1.960784,-1.960784,-1.960784,2,0,1
2.823529,-5.647059,104.470588,-0.007843,-0.007843,-0.007843,-1.960784,-1.960784,-1.960784,2,0,1
2.823529,-5.647059,104.470588,-0.007843,0.007843,-0.007843,-1.960784,-1.960784,-1.960784,2,0,1
2.823529,-5.647059,104.470588,-0.007843,-0.007843,-0.007843,-1.960784,-1.960784,-1.960784,2,0,1
2.823529,-5.647059,104.470588,0.007843,-0.007843,-0.007843,-1.960784,-1.960784,-1.960784,2,0,1
2.823529,-4.235294,104.470588,-0.196078,-0.007843,0.007843,-5.882353,-1.960784,13.72549,2,0,1
1.411765,-2.823529,104.470588,-0.054902,-0.305882,0.384314,-9.803922,52.941176,1.960784,2,2,1
1.411765,-2.823529,104.470588,0.164706,-0.258824,0.823529,-33.333333,-5.882353,-1.960784,2,2,1
0,-5.647059,104.470588,0.243137,-0.180392,0.65098,-1.960784,-52.941176,-13.72549,2,2,1
0,-7.058824,104.470588,0.290196,0.086275,0.070588,-13.72549,-60.784314,-9.803922,2,2,1
0,-8.470588,104.470588,0.290196,0.258824,-0.431373,-29.411765,-25.490196,5.882353,2,2,1
0,-8.470588,105.882353,0.196078,0.290196,-0.588235,-37.254902,5.882353,33.333333,2,2,1
-2.823529,-7.058824,107.294118,-0.039216,0.164706,-0.776471,-33.333333,25.490196,45.098039,2,2,1
-2.823529,-5.647059,108.705882,-0.180392,0.101961,-0.619608,-25.490196,41.176471,52.941176,2,2,1
-2.823529,-2.823529,110.117647,-0.290196,-0.007843,-0.415686,-1.960784,37.254902,45.098039,2,2,1
0,-2.823529,111.529412,-0.243137,-0.023529,-0.290196,17.647059,17.647059,29.411765,2,2,1
0,0,112.941176,-0.243137,-0.14902,-0.211765,21.568627,9.803922,25.490196,2,2,1
0,0,112.941176,-0.196078,-0.117647,-0.039216,17.647059,13.72549,13.72549,2,2,1
1.411765,0,112.941176,-0.164706,-0.117647,0.086275,33.333333,-13.72549,1.960784,2,2,1
2.823529,-2.823529,112.941176,-0.086275,-0.101961,0.133333,37.254902,-33.333333,-5.882353,2,2,1
4.235294,-2.823529,112.941176,-0.117647,0.007843,0.007843,45.098039,-25.490196,-9.803922,2,2,1
4.235294,-2.823529,112.941176,-0.086275,-0.007843,0.101961,21.568627,5.882353,-9.803922,2,2,1
4.235294,-2.823529,111.529412,-0.007843,-0.007843,0.321569,13.72549,-13.72549,-5.882353,2,1,1
4.235294,-5.647059,111.529412,1.984314,0.039216,0.964706,1.960784,-119.607843,-9.803922,2,1,1
4.235294,-5.647059,111.529412,-0.133333,0.054902,0.117647,-5.882353,5.882353,5.882353,2,1,1
4.235294,-5.647059,111.529412,0.101961,-0.070588,0.070588,-1.960784,5.882353,-5.882353,2,1,1
4.235294,-4.235294,111.529412,-0.039216,0.007843,0.070588,-1.960784,9.803922,-9.803922,2,1,1
4.235294,-4.235294,111.529412,0.023529,-0.007843,-0.023529,-1.960784,-5.882353,-1.960784,2,1,1
4.235294,-4.235294,111.529412,0.039216,-0.007843,-0.070588,-1.960784,-5.882353,1.960784,2,1,1
4.235294,-4.235294,111.529412,0.007843,0.007843,-0.039216,-1.960784,1.960784,-1.960784,2,1,1
4.235294,-4.235294,111.529412,-0.023529,-0.007843,0.023529,-1.960784,-1.960784,-1.960784,2,1,1
4.235294,-4.235294,111.529412,-0.007843,-0.007843,-0.007843,-1.960784,-5.882353,-1.960784,2,1,1
4.235294,-4.235294,111.529412,0.007843,-0.007843,-0.039216,-1.960784,-1.960784,-1.960784,2,1,1
4.235294,-4.235294,111.529412,-0.007843,0.007843,-0.007843,-1.960784,-1.960784,-1.960784,2,1,1
4.235294,-4.235294,111.529412,-0.007843,-0.007843,-0.007843,-1.960784,-1.960784,-1.960784,2,1,1
4.235294,-4.235294,111.529412,-0.007843,-0.007843,-0.007843,-1.960784,-1.960784,-1.960784,2,1,1
4.235294,-4.235294,111.529412,-0.007843,0.007843,-0.007843,-1.960784,-1.960784,-1.960784,2,1,1
2.823529,-4.235294,111.529412,0.007843,-0.039216,-0.007843,-1.960784,-1.960784,-5.882353,2,1,1
2.823529,-4.235294,111.529412,-0.007843,-0.007843,-0.007843,-1.960784,-1.960784,-1.960784,2,2,2
2.823529,-4.235294,111.529412,-0.007843,0.007843,-0.007843,-1.960784,-1.960784,-1.960784,2,2,2
2.823529,-4.235294,111.529412,-0.007843,0.007843,0.007843,-1.960784,-1.960784,-1.960784,2,2,2
2.823529,-4.235294,111.529412,-0.007843,0.023529,0.007843,-1.960784,-5.882353,-1.960784,2,2,2
2.823529,-2.823529,112.941176,-0.023529,-0.133333,-0.117647,-17.647059,25.490196,13.72549,2,2,2
1.411765,0,112.941176,-0.007843,-0.180392,0.807843,-25.490196,37.254902,-1.960784,2,2,2
1.411765,-2.823529,111.529412,0.101961,-0.243137,0.776471,-5.882353,-25.490196,-13.72549,2,2,2
1.411765,-4.235294,111.529412,0.164706,-0.133333,0.52549,-13.72549,-56.862745,-17.647059,2,2,2
0,-7.058824,111.529412,0.258824,0.086275,0.086275,-37.254902,-56.862745,-9.803922,2,2,2
-2.823529,-8.470588,111.529412,0.27451,0.211765,-0.337255,-37.254902,-45.098039,-1.960784,2,2,2
-2.823529,-9.882353,111.529412,0.243137,0.321569,-0.603922,-29.411765,-37.254902,17.647059,2,2,2
-2.823529,-11.294118,112.941176,0.086275,0.180392,-0.823529,-29.411765,-13.72549,37.254902,2,2,2
0,-9.882353,114.352941,-0.023529,0.101961,-0.839216,-1.960784,21.568627,41.176471,2,2,2
0,-8.470588,115.764706,-0.086275,0.007843,-0.52549,9.803922,33.333333,45.098039,2,2,2
0,-7.058824,117.176471,-0.196078,-0.007843,-0.431373,21.568627,21.568627,41.176471,2,2,2
1.411765,-5.647059,118.588235,-0.27451,-0.086275,-0.243137,21.568627,29.411765,33.333333,2,2,2
1.411765,-4.235294,120,-0.27451,-0.133333,-0.023529,13.72549,29.411765,21.568627,2,1,2
1.411765,-2.823529,120,-0.180392,-0.14902,0.164706,17.647059,21.568627,9.803922,2,1,2
2.823529,-2.823529,120,-0.14902,-0.117647,0.227451,37.254902,-1.960784,-1.960784,2,1,2
4.235294,-2.823529,120,-0.117647,-0.101961,0.196078,29.411765,-1.960784,-9.803922,2,1,2
4.235294,-2.823529,120,-0.039216,-0.007843,0.243137,21.568627,-5.882353,-5.882353,2,1,2
5.647059,-2.823529,118.588235,-0.023529,-0.039216,0.211765,17.647059,-9.803922,-9.803922,2,1,2
7.058824,-9.882353,118.588235,1.952941,-0.164706,0.996078,-49.019608,174.509804,-5.882353,2,1,2
7.058824,-9.882353,118.588235,0.509804,0.070588,-0.572549,-5.882353,21.568627,-13.72549,2,1,2
7.058824,-9.882353,118.588235,0.086275,-0.023529,-0.117647,-5.882353,5.882353,-5.882353,2,1,2
7.058824,-9.882353,118.588235,-0.023529,-0.007843,0.023529,-1.960784,-1.960784,-5.882353,2,1,2
7.058824,-8.470588,118.588235,-0.054902,0.007843,0.039216,-1.960784,-5.882353,-1.960784,2,1,2
7.058824,-8.470588,118.588235,-0.023529,0.007843,-0.007843,-1.960784,-5.882353,-1.960784,2,1,2
5.647059,-8.470588,118.588235,0.007843,0.007843,-0.039216,-1.960784,-1.960784,-1.960784,2,1,2
5.647059,-8.470588,118.588235,0.007843,-0.007843,-0.007843,-1.960784,-1.960784,-1.960784,2,1,2
5.647059,-8.470588,118.588235,0.007843,-0.007843,-0.007843,-1.960784,-1.960784,-1.960784,2,1,2
5.647059,-8.470588,118.588235,-0.007843,0.007843,-0.007843,-1.960784,-1.960784,-1.960784,2,1,2
5.647059,-8.470588,118.588235,-0.007843,0.007843,-0.007843,-1.960784,-1.960784,-1.960784,2,1,2
5.647059,-8.470588,118.588235,-0.007843,0.007843,0.007843,-1.960784,-1.960784,-1.960784,2,1,2
5.647059,-8.470588,118.588235,-0.007843,0.007843,-0.007843,-1.960784,-1.960784,-1.960784,2,1,2
5.647059,-8.470588,118.588235,0.007843,0.007843,-0.007843,-1.960784,-1.960784,-1.960784,2,1,2
5.647059,-8.470588,118.588235,-0.007843,0.023529,0.007843,-1.960784,-1.960784,-1.960784,2,1,2
5.647059,-8.470588,118.588235,-0.007843,-0.007843,0.007843,-1.960784,-5.882353,-1.960784,2,1,2
5.647059,-8.470588,118.588235,-0.007843,0.007843,0.039216,-1.960784,-1.960784,-1.960784,2,1,2
4.235294,-8.470588,118.588235,-0.023529,-0.070588,0.133333,-21.568627,-5.882353,13.72549,2,1,2
2.823529,-7.058824,118.588235,0.039216,-0.227451,0.447059,-33.333333,29.411765,-13.72549,2,1,2
2.823529,-7.058824,118.588235,0.039216,-0.27451,0.635294,-13.72549,-21.568627,-9.803922,2,1,2
2.823529,-8.470588,117.176471,0.101961,-0.243137,0.478431,-1.960784,-45.098039,-21.568627,2,1,2
1.411765,-9.882353,117.176471,0.243137,-0.101961,0.243137,-33.333333,-37.254902,-17.647059,2,1,2
0,-11.294118,117.176471,0.337255,0.054902,-0.023529,-52.941176,-37.254902,-9.803922,2,1,2
-2.823529,-12.705882,117.176471,0.337255,0.196078,-0.321569,-45.098039,-37.254902,-1.960784,2,1,2
-4.235294,-14.117647,117.176471,0.258824,0.227451,-0.541176,-33.333333,-21.568627,21.568627,2,1,2
-4.235294,-14.117647,118.588235,0.180392,0.180392,-0.682353,-29.411765,5.882353,37.254902,2,1,2
-4.235294,-12.705882,120,0.086275,0.039216,-0.619608,-25.490196,17.647059,41.176471,2,1,2
-4.235294,-12.705882,121.411765,-0.023529,0.070588,-0.572549,9.803922,5.882353,41.176471,2,1,2
-2.823529,-11.294118,122.823529,-0.164706,0.070588,-0.556863,41.176471,5.882353,41.176471,2,1,2
0,-9.882353,124.235294,-0.196078,-0.070588,-0.462745,29.411765,33.333333,41.176471,2,1,2
0,-8.470588,125.647059,-0.258824,-0.133333,-0.117647,9.803922,56.862745,37.254902,2,1,2
1.411765,-5.647059,127.058824,-0.227451,-0.164706,0.133333,21.568627,37.254902,25.490196,2,1,2
2.823529,-5.647059,127.058824,-0.180392,-0.14902,0.4,52.941176,5.882353,13.72549,2,1,2
4.235294,-5.647059,127.058824,-0.164706,-0.180392,0.258824,60.784314,-25.490196,-1.960784,2,1,2
5.647059,-5.647059,127.058824,-0.086275,-0.086275,0.164706,33.333333,-5.882353,-9.803922,2,1,2
5.647059,-7.058824,127.058824,-0.023529,0.039216,0.14902,25.490196,-13.72549,-5.882353,2,1,2
5.647059,-5.647059,127.058824,-0.039216,-0.007843,0.023529,9.803922,1.960784,-1.960784,2,1,2
5.647059,-9.882353,128.470588,-1.764706,-0.603922,0.14902,-25.490196,-162.745098,60.784314,2,1,2
5.647059,-9.882353,128.470588,-0.117647,0.007843,-0.196078,1.960784,-21.568627,-1.960784,2,1,2
4.235294,-9.882353,128.470588,0.117647,-0.133333,0.054902,-1.960784,13.72549,-1.960784,2,1,2
4.235294,-9.882353,128.470588,0.054902,0.039216,-0.054902,-1.960784,1.960784,-5.882353,2,1,2
4.235294,-9.882353,128.470588,0.023529,0.007843,-0.023529,-1.960784,-5.882353,-1.960784,2,1,2
4.235294,-9.882353,128.470588,-0.007843,0.007843,-0.007843,-1.960784,-5.882353,-1.960784,2,1,2
4.235294,-9.882353,128.470588,-0.007843,0.007843,-0.007843,-1.960784,-1.960784,-1.960784,2,1,2
4.235294,-9.882353,128.470588,-0.007843,-0.007843,-0.007843,-1.960784,-1.960784,-1.960784,2,1,2
4.235294,-9.882353,128.470588,0.007843,-0.007843,-0.007843,-1.960784,-1.960784,-1.960784,2,1,2
4.235294,-9.882353,128.470588,0.007843,0.007843,-0.023529,-1.960784,-1.960784,-1.960784,2,1,2
4.235294,-8.470588,128.470588,-0.007843,0.007843,-0.007843,-1.960784,-1.960784,-1.960784,2,1,2
4.235294,-8.470588,128.470588,0.007843,-0.007843,-0.007843,-1.960784,-1.960784,-1.960784,2,1,2
4.235294,-8.470588,128.470588,0.007843,0.007843,-0.007843,-1.960784,-1.960784,-1.960784,2,1,2
4.235294,-8.470588,128.470588,0.007843,0.007843,-0.007843,-1.960784,-1.960784,-1.960784,2,1,2
4.235294,-8.470588,128.470588,0.007843,-0.007843,-0.007843,-1.960784,-1.960784,-1.960784,2,1,2
4.235294,-8.470588,128.470588,0.007843,0.007843,-0.007843,-1.960784,-1.960784,-1.960784,2,1,2
4.235294,-8.470588,128.470588,-0.007843,0.007843,-0.007843,-1.960784,-1.960784,-1.960784,2,1,2
4.235294,-8.470588,128.470588,0.007843,-0.007843,-0.023529,-1.960784,-1.960784,-1.960784,2,1,2
4.235294,-8.470588,128.470588,-0.007843,-0.007843,-0.007843,-1.960784,-1.960784,-1.960784,2,1,2
2.823529,-8.470588,129.882353,-0.007843,-0.070588,0.054902,-13.72549,1.960784,17.647059,2,1,2
2.823529,-7.058824,128.470588,-0.023529,-0.227451,0.52549,-9.803922,13.72549,-17.647059,2,1,2
2.823529,-8.470588,128.470588,0.054902,-0.180392,0.478431,-1.960784,-29.411765,-13.72549,2,2,1
1.411765,-8.470588,128.470588,0.164706,-0.180392,0.415686,-9.803922,-29.411765,-21.568627,2,2,1
0,-9.882353,127.058824,0.27451,-0.086275,0.305882,-41.176471,-29.411765,-9.803922,2,2,1
-2.823529,-11.294118,127.058824,0.321569,0.023529,0.117647,-68.627451,-37.254902,-5.882353,2,2,1
-4.235294,-12.705882,127.058824,0.290196,0.211765,-0.180392,-49.019608,-49.019608,1.960784,2,2,1
-4.235294,-15.529412,128.470588,0.227451,0.227451,-0.556863,-21.568627,-49.019608,13.72549,2,2,1
-4.235294,-15.529412,128.470588,0.133333,0.243137,-0.729412,-21.568627,-21.568627,29.411765,2,2,1
-4.235294,-15.529412,131.294118,0.023529,0.133333,-0.745098,-13.72549,5.882353,45.098039,2,2,1
-2.823529,-14.117647,132.705882,-0.054902,0.070588,-0.572549,5.882353,25.490196,49.019608,2,2,1
-2.823529,-12.705882,134.117647,-0.117647,-0.023529,-0.368627,21.568627,25.490196,49.019608,2,2,1
-2.823529,-11.294118,135.529412,-0.180392,-0.101961,-0.337255,17.647059,29.411765,37.254902,2,2,1
0,-9.882353,136.941176,-0.164706,-0.164706,-0.117647,21.568627,33.333333,25.490196,2,2,1
1.411765,-8.470588,136.941176,-0.101961,-0.086275,0.007843,45.098039,17.647059,9.803922,2,2,1
2.823529,-8.470588,136.941176,-0.133333,-0.117647,-0.007843,45.098039,13.72549,9.803922,2,2,1
2.823529,-7.058824,136.941176,-0.086275,-0.133333,0.196078,29.411765,29.411765,-5.882353,2,2,1
4.235294,-5.647059,136.941176,-0.086275,0.023529,0.196078,29.411765,17.647059,-5.882353,2,2,1
5.647059,-5.647059,136.941176,-0.070588,-0.039216,0.258824,33.333333,13.72549,-5.882353,2,1,1
8.470588,-9.882353,136.941176,1.952941,-0.196078,0.996078,-25.490196,131.372549,-13.72549,2,1,1
8.470588,-9.882353,135.529412,1.137255,0.023529,-0.180392,-1.960784,52.941176,-17.647059,2,1,1
8.470588,-9.882353,135.529412,0.211765,0.023529,-0.258824,-1.960784,17.647059,-1.960784,2,1,1
8.470588,-8.470588,135.529412,-0.007843,0.039216,0.054902,-1.960784,-1.960784,-9.803922,2,1,1
7.058824,-8.470588,135.529412,0.007843,-0.007843,-0.023529,-1.960784,-1.960784,-1.960784,2,1,1
7.058824,-9.882353,135.529412,-0.023529,0.070588,0.007843,-1.960784,-13.72549,-1.960784,2,1,1
7.058824,-8.470588,135.529412,-0.007843,0.007843,-0.007843,-1.960784,-1.960784,-1.960784,2,1,1
7.058824,-8.470588,135.529412,-0.007843,0.101961,-0.039216,-1.960784,1.960784,-5.882353,2,1,1
7.058824,-8.470588,135.529412,0.039216,-0.164706,-0.007843,-1.960784,-5.882353,-13.72549,2,1,1
7.058824,-8.470588,135.529412,-0.007843,0.007843,0.007843,-1.960784,-1.960784,-1.960784,2,1,1
7.058824,-8.470588,135.529412,-0.007843,0.007843,0.070588,-5.882353,-13.72549,-1.960784,2,1,1
5.647059,-9.882353,135.529412,-0.101961,-0.007843,0.180392,-41.176471,-17.647059,9.803922,2,1,1
4.235294,-8.470588,134.117647,-0.243137,0.039216,0.27451,-21.568627,-9.803922,-21.568627,2,1,1
4.235294,-8.470588,134.117647,-0.368627,0.101961,0.196078,1.960784,-17.647059,-37.254902,2,1,1
4.235294,-8.470588,131.294118,-0.556863,-0.007843,0.117647,9.803922,-13.72549,-60.784314,2,1,1
