Eulerx,Eulery,Eulerz,Accx,Accy,Accz,Gyrox,Gyroy,Gyroz,Label
-2.823529,0,-5.647059,-0.007843,-0.007843,-0.007843,-1.960784,-1.960784,-1.960784,Null
-2.823529,0,-5.647059,-0.007843,-0.007843,-0.007843,-1.960784,-1.960784,-1.960784,Null
-2.823529,0,-5.647059,-0.007843,-0.007843,-0.007843,-1.960784,-1.960784,-1.960784,Null
-2.823529,0,-5.647059,-0.007843,-0.007843,-0.007843,-1.960784,-1.960784,-1.960784,Null
-2.823529,0,-5.647059,-0.007843,-0.007843,-0.007843,-1.960784,-1.960784,-1.960784,Null
-2.823529,0,-5.647059,-0.007843,-0.007843,-0.007843,-1.960784,-1.960784,-1.960784,Null
-2.823529,0,-5.647059,-0.007843,-0.007843,-0.007843,-1.960784,-1.960784,-1.960784,Null
-2.823529,0,-5.647059,-0.007843,-0.007843,-0.007843,-1.960784,-1.960784,-1.960784,Null
-2.823529,0,-5.647059,-0.007843,-0.007843,-0.007843,-1.960784,-1.960784,-1.960784,Null
-2.823529,0,-5.647059,-0.007843,-0.007843,-0.007843,-1.960784,-1.960784,-1.960784,Null
-2.823529,0,-5.647059,-0.007843,-0.007843,-0.007843,-1.960784,-1.960784,-1.960784,Null
-2.823529,0,-5.647059,-0.007843,-0.007843,-0.007843,-1.960784,-1.960784,-1.960784,Null
-2.823529,0,-5.647059,-0.007843,-0.007843,-0.007843,-1.960784,-1.960784,-1.960784,Null
-2.823529,0,-5.647059,-0.007843,-0.007843,-0.007843,-1.960784,-1.960784,-1.960784,Null
-2.823529,0,-5.647059,-0.007843,-0.007843,0.007843,-1.960784,-1.960784,-1.960784,Null
-2.823529,0,-5.647059,-0.007843,-0.007843,-0.007843,-1.960784,-1.960784,-1.960784,Null
-2.823529,0,-5.647059,-0.007843,-0.007843,-0.007843,-1.960784,-1.960784,-1.960784,Null
-2.823529,0,-5.647059,-0.007843,-0.007843,-0.007843,-1.960784,-1.960784,-1.960784,Null
-2.823529,0,-5.647059,-0.007843,-0.007843,-0.007843,-1.960784,-1.960784,-1.960784,Null
-2.823529,0,-5.647059,-0.007843,-0.007843,-0.007843,-1.960784,-1.960784,-1.960784,Null
-2.823529,0,-5.647059,-0.007843,-0.007843,-0.007843,-1.960784,-1.960784,-1.960784,Null
-2.823529,0,-5.647059,-0.007843,-0.007843,-0.007843,-1.960784,-1.960784,-1.960784,Null
-2.823529,0,-5.647059,-0.007843,-0.007843,-0.007843,-1.960784,-1.960784,-1.960784,Null
-2.823529,0,-5.647059,-0.007843,-0.007843,-0.007843,-1.960784,-1.960784,-1.960784,Null
-2.823529,0,-5.647059,-0.007843,-0.007843,-0.007843,-1.960784,-1.960784,-1.960784,Null
-2.823529,0,-5.647059,-0.007843,-0.007843,-0.007843,-1.960784,-1.960784,-1.960784,Null
-2.823529,0,-5.647059,-0.007843,-0.007843,-0.007843,-1.960784,-1.960784,-1.960784,Null
-2.823529,0,-5.647059,-0.007843,-0.007843,-0.007843,-1.960784,-1.960784,-1.960784,Null
-2.823529,0,-5.647059,-0.007843,-0.007843,-0.007843,-1.960784,-1.960784,-1.960784,Null
-2.823529,0,-5.647059,-0.007843,-0.007843,-0.007843,-1.960784,-1.960784,-1.960784,Null
-2.823529,0,-5.647059,-0.007843,-0.007843,-0.007843,-1.960784,-1.960784,-1.960784,Null
-2.823529,0,-5.647059,-0.007843,-0.007843,-0.007843,-1.960784,-1.960784,-1.960784,Null
-2.823529,0,-5.647059,-0.007843,-0.007843,-0.007843,-1.960784,-1.960784,-1.960784,Null
-2.823529,0,-5.647059,-0.007843,-0.007843,-0.007843,-1.960784,-1.960784,-1.960784,Null
-2.823529,0,-5.647059,-0.007843,-0.007843,-0.007843,-1.960784,-1.960784,-1.960784,Null
-2.823529,0,-5.647059,-0.007843,-0.007843,-0.007843,-1.960784,-1.960784,-1.960784,Null
-2.823529,0,-5.647059,-0.007843,-0.007843,-0.007843,-1.960784,-1.960784,-1.960784,Null
-2.823529,0,-5.647059,-0.007843,-0.007843,-0.007843,-1.960784,-1.960784,-1.960784,Null
-2.823529,0,-5.647059,-0.007843,-0.007843,-0.007843,-1.960784,-1.960784,-1.960784,Null
-2.823529,0,-5.647059,-0.007843,-0.007843,-0.007843,-1.960784,-1.960784,-1.960784,Null
-2.823529,0,-5.647059,-0.007843,-0.007843,-0.007843,-1.960784,-1.960784,-1.960784,Null
-2.823529,0,-5.647059,-0.007843,-0.007843,-0.007843,-1.960784,-1.960784,-1.960784,Null
-2.823529,0,-5.647059,-0.007843,-0.007843,-0.007843,-1.960784,-1.960784,-1.960784,Null
-2.823529,0,-5.647059,-0.007843,-0.007843,-0.007843,-1.960784,-1.960784,-1.960784,Null
-2.823529,0,-5.647059,-0.007843,-0.007843,-0.007843,-1.960784,-1.960784,-1.960784,Null
-2.823529,0,-5.647059,-0.007843,-0.007843,-0.007843,-1.960784,-1.960784,-1.960784,Null
-2.823529,0,-5.647059,-0.007843,-0.007843,-0.007843,-1.960784,-1.960784,-1.960784,Null
-2.823529,0,-5.647059,-0.007843,-0.007843,-0.007843,-1.960784,-1.960784,-1.960784,Null
-2.823529,0,-5.647059,-0.007843,-0.007843,-0.007843,-1.960784,-1.960784,-1.960784,Null
-2.823529,0,-5.647059,-0.007843,-0.007843,0.007843,-1.960784,-1.960784,-1.960784,Null
-2.823529,0,-5.647059,-0.007843,-0.007843,-0.007843,-1.960784,-1.960784,-1.960784,Null
-2.823529,0,-5.647059,-0.007843,-0.007843,-0.007843,-1.960784,-1.960784,-1.960784,Null
-2.823529,0,-5.647059,-0.007843,-0.007843,-0.007843,-1.960784,-1.960784,-1.960784,Null
-2.823529,0,-5.647059,-0.007843,-0.007843,-0.007843,-1.960784,-1.960784,-1.960784,Null
-2.823529,0,-5.647059,-0.007843,-0.007843,-0.007843,-1.960784,-1.960784,-1.960784,Null
-2.823529,0,-5.647059,-0.007843,-0.007843,-0.007843,-1.960784,-1.960784,-1.960784,Null
-2.823529,0,-5.647059,-0.007843,-0.007843,-0.007843,-1.960784,-1.960784,-1.960784,Null
-2.823529,0,-5.647059,-0.007843,-0.007843,-0.007843,-1.960784,-1.960784,-1.960784,Null
-2.823529,0,-5.647059,-0.007843,-0.007843,-0.007843,-1.960784,-1.960784,-1.960784,Null
-2.823529,0,-5.647059,-0.007843,-0.007843,-0.007843,-1.960784,-1.960784,-1.960784,Null
-2.823529,0,-5.647059,-0.007843,-0.007843,-0.007843,-1.960784,-1.960784,-1.960784,Null
-2.823529,0,-5.647059,-0.007843,-0.007843,-0.007843,-1.960784,-1.960784,-1.960784,Null
-2.823529,0,-5.647059,-0.007843,-0.007843,-0.007843,-1.960784,-1.960784,-1.960784,Null
-2.823529,0,-5.647059,-0.007843,-0.007843,-0.007843,-1.960784,-1.960784,-1.960784,Null
-2.823529,0,-5.647059,-0.007843,-0.007843,-0.007843,-1.960784,-1.960784,-1.960784,Null
-2.823529,0,-5.647059,-0.007843,-0.007843,-0.007843,-1.960784,-1.960784,-1.960784,Null
-2.823529,0,-5.647059,-0.007843,-0.007843,-0.007843,-1.960784,-1.960784,-1.960784,Null
-2.823529,0,-5.647059,-0.007843,-0.007843,-0.007843,-1.960784,-1.960784,-1.960784,Null
-2.823529,0,-5.647059,-0.007843,-0.007843,-0.007843,-1.960784,-1.960784,-1.960784,Null
-2.823529,0,-5.647059,-0.007843,-0.007843,-0.007843,-1.960784,-1.960784,-1.960784,Null
-2.823529,0,-5.647059,-0.007843,-0.007843,-0.007843,-1.960784,-1.960784,-1.960784,Null
-2.823529,0,-5.647059,-0.007843,-0.007843,-0.007843,-1.960784,-1.960784,-1.960784,Null
-2.823529,0,-5.647059,-0.007843,-0.007843,0.007843,-1.960784,-1.960784,-1.960784,Null
-2.823529,0,-5.647059,-0.007843,-0.007843,-0.007843,-1.960784,-1.960784,-1.960784,Null
-2.823529,0,-5.647059,-0.007843,-0.007843,-0.007843,-1.960784,-1.960784,-1.960784,Null
-2.823529,0,-5.647059,-0.007843,-0.007843,-0.007843,-1.960784,-1.960784,-1.960784,Null
-2.823529,0,-5.647059,-0.007843,-0.007843,-0.007843,-1.960784,-1.960784,-1.960784,Null
-2.823529,0,-5.647059,-0.007843,-0.007843,-0.007843,-1.960784,-1.960784,-1.960784,Null
-2.823529,0,-5.647059,-0.007843,-0.007843,-0.007843,-1.960784,-1.960784,-1.960784,Null
-2.823529,0,-5.647059,-0.007843,-0.007843,0.007843,-1.960784,-1.960784,-1.960784,Null
-2.823529,0,-5.647059,-0.007843,-0.007843,-0.007843,-1.960784,-1.960784,-1.960784,Null
-2.823529,0,-5.647059,-0.007843,-0.007843,-0.007843,-1.960784,-1.960784,-1.960784,Null
-2.823529,0,-5.647059,-0.007843,-0.007843,-0.007843,-1.960784,-1.960784,-1.960784,Null
-2.823529,-2.823529,-5.647059,-0.007843,-0.007843,0.007843,-1.960784,-1.960784,-1.960784,Null
-2.823529,-2.823529,-5.647059,-0.007843,-0.007843,-0.007843,-1.960784,-1.960784,-1.960784,Null
-2.823529,-2.823529,-5.647059,-0.007843,-0.007843,-0.007843,-1.960784,-1.960784,-1.960784,Null
-2.823529,-2.823529,-5.647059,-0.007843,-0.007843,-0.007843,-1.960784,-1.960784,-1.960784,Null
-2.823529,-2.823529,-5.647059,-0.007843,-0.007843,0.007843,-1.960784,-1.960784,-1.960784,3
-2.823529,-2.823529,-5.647059,-0.007843,-0.007843,-0.007843,-1.960784,-1.960784,-1.960784,3
-2.823529,-2.823529,-5.647059,-0.007843,-0.007843,0.007843,-1.960784,-1.960784,-1.960784,3
-2.823529,-2.823529,-5.647059,-0.007843,-0.007843,-0.007843,-1.960784,-1.960784,-1.960784,3
-2.823529,-2.823529,-5.647059,-0.007843,-0.007843,-0.007843,-1.960784,-1.960784,-1.960784,3
-2.823529,-2.823529,-5.647059,-0.007843,-0.007843,-0.007843,-1.960784,-1.960784,-1.960784,3
-2.823529,-2.823529,-5.647059,-0.007843,-0.007843,-0.007843,-1.960784,-1.960784,-1.960784,3
-2.823529,-2.823529,-5.647059,-0.007843,-0.007843,-0.007843,-1.960784,-1.960784,-1.960784,3
-2.823529,-2.823529,-5.647059,-0.007843,-0.007843,-0.007843,-1.960784,-1.960784,-1.960784,3
-2.823529,-2.823529,-5.647059,-0.007843,-0.007843,-0.007843,-1.960784,-1.960784,-1.960784,3
-2.823529,-2.823529,-5.647059,-0.007843,-0.007843,-0.007843,-1.960784,-1.960784,-1.960784,3
-2.823529,-2.823529,-5.647059,-0.007843,-0.007843,-0.007843,-1.960784,-1.960784,-1.960784,3
-2.823529,-2.823529,-5.647059,-0.007843,-0.007843,-0.007843,-1.960784,-1.960784,-1.960784,3
-2.823529,-2.823529,-5.647059,-0.007843,-0.007843,-0.007843,-1.960784,-1.960784,-1.960784,3
-2.823529,-2.823529,-5.647059,-0.007843,-0.007843,-0.007843,-1.960784,-1.960784,-1.960784,3
-2.823529,-2.823529,-5.647059,-0.007843,-0.007843,-0.007843,-1.960784,-1.960784,-1.960784,3
-2.823529,-2.823529,-5.647059,-0.007843,-0.007843,-0.007843,-1.960784,-1.960784,-1.960784,3
-2.823529,-2.823529,-5.647059,-0.007843,-0.007843,-0.007843,-1.960784,-1.960784,-1.960784,3
-2.823529,-2.823529,-5.647059,-0.007843,-0.007843,-0.007843,-1.960784,-1.960784,-1.960784,3
-2.823529,-2.823529,-5.647059,-0.007843,-0.007843,-0.007843,-1.960784,-1.960784,-1.960784,3
-2.823529,-2.823529,-5.647059,-0.007843,-0.007843,-0.007843,-1.960784,-1.960784,-1.960784,3
-2.823529,-2.823529,-5.647059,-0.007843,-0.007843,-0.007843,-1.960784,-1.960784,-1.960784,3
-2.823529,-2.823529,-5.647059,-0.007843,-0.007843,-0.007843,-1.960784,-1.960784,-1.960784,3
-2.823529,-2.823529,-5.647059,-0.007843,-0.007843,-0.007843,-1.960784,-1.960784,-1.960784,3
-2.823529,0,-5.647059,-0.007843,-0.007843,-0.007843,-1.960784,-1.960784,-1.960784,3
-2.823529,-2.823529,-5.647059,-0.007843,-0.007843,-0.007843,-1.960784,-1.960784,-1.960784,3
-2.823529,-2.823529,-5.647059,-0.007843,-0.007843,-0.007843,-1.960784,-1.960784,-1.960784,3
-2.823529,0,-5.647059,-0.007843,-0.007843,-0.007843,-1.960784,-1.960784,-1.960784,3
-2.823529,0,-5.647059,-0.007843,-0.007843,-0.007843,-1.960784,-1.960784,-1.960784,3
-2.823529,0,-5.647059,-0.007843,-0.007843,-0.007843,-1.960784,-1.960784,-1.960784,3
-2.823529,0,-5.647059,-0.007843,-0.007843,-0.007843,-1.960784,-1.960784,-1.960784,3
-2.823529,0,-5.647059,-0.007843,-0.007843,-0.007843,-1.960784,-1.960784,-1.960784,3
-2.823529,0,-5.647059,-0.007843,-0.007843,-0.007843,-1.960784,-1.960784,-1.960784,3
-2.823529,0,-5.647059,-0.007843,-0.007843,-0.007843,-1.960784,-1.960784,-1.960784,3
-2.823529,0,-5.647059,-0.007843,-0.007843,-0.007843,-1.960784,-1.960784,-1.960784,3
-2.823529,0,-5.647059,-0.007843,-0.007843,-0.007843,-1.960784,-1.960784,-1.960784,3
-2.823529,0,-5.647059,-0.007843,-0.007843,-0.007843,-1.960784,-1.960784,-1.960784,3
-2.823529,0,-5.647059,-0.007843,-0.007843,-0.007843,-1.960784,-1.960784,-1.960784,3
-2.823529,0,-5.647059,-0.007843,-0.007843,-0.007843,-1.960784,-1.960784,-1.960784,3
-2.823529,0,-5.647059,-0.007843,-0.007843,-0.007843,-1.960784,-1.960784,-1.960784,3
-2.823529,0,-5.647059,-0.007843,-0.007843,-0.007843,-1.960784,-1.960784,-1.960784,3
-2.823529,0,-5.647059,-0.007843,-0.007843,-0.007843,-1.960784,-1.960784,-1.960784,3
-2.823529,0,-5.647059,-0.007843,-0.007843,-0.007843,-1.960784,-1.960784,-1.960784,3
-2.823529,0,-5.647059,-0.007843,-0.007843,-0.007843,-1.960784,-1.960784,-1.960784,3
-2.823529,0,-5.647059,-0.007843,-0.007843,-0.007843,-1.960784,-1.960784,-1.960784,3
-2.823529,0,-5.647059,-0.007843,-0.007843,-0.007843,-1.960784,-1.960784,-1.960784,3
-2.823529,0,-5.647059,-0.007843,-0.007843,0.007843,-1.960784,-1.960784,-1.960784,3
-2.823529,0,-5.647059,-0.007843,-0.007843,-0.007843,-1.960784,-1.960784,-1.960784,3
-2.823529,0,-5.647059,-0.007843,-0.007843,-0.007843,-1.960784,-1.960784,-1.960784,3
-2.823529,0,-5.647059,-0.007843,-0.007843,-0.007843,-1.960784,-1.960784,-1.960784,3
-2.823529,0,-5.647059,-0.007843,-0.007843,-0.007843,-1.960784,-1.960784,-1.960784,3
-2.823529,0,-5.647059,-0.007843,-0.007843,-0.007843,-1.960784,-1.960784,-1.960784,3
-2.823529,0,-5.647059,-0.007843,-0.007843,-0.007843,-1.960784,-1.960784,-1.960784,3
-2.823529,0,-5.647059,-0.007843,-0.007843,-0.007843,-1.960784,-1.960784,-1.960784,3
-2.823529,0,-5.647059,-0.007843,-0.007843,-0.007843,-1.960784,-1.960784,-1.960784,3
-2.823529,0,-5.647059,-0.007843,-0.007843,-0.007843,-1.960784,-1.960784,-1.960784,3
-2.823529,0,-5.647059,-0.007843,-0.007843,-0.007843,-1.960784,-1.960784,-1.960784,3
-2.823529,0,-5.647059,-0.007843,-0.007843,-0.007843,-1.960784,-1.960784,-1.960784,3
-2.823529,0,-5.647059,-0.007843,-0.007843,-0.007843,-1.960784,-1.960784,-1.960784,3
-2.823529,0,-5.647059,-0.007843,-0.007843,-0.007843,-1.960784,-1.960784,-1.960784,3
0,0,-5.647059,-0.007843,-0.007843,-0.007843,-1.960784,-1.960784,-1.960784,3
-2.823529,0,-5.647059,-0.007843,-0.007843,-0.007843,-1.960784,-1.960784,-1.960784,3
-2.823529,0,-5.647059,-0.007843,-0.007843,-0.007843,-1.960784,-1.960784,-1.960784,3
-2.823529,0,-5.647059,-0.007843,-0.007843,-0.023529,-1.960784,-1.960784,-1.960784,3
-2.823529,0,-5.647059,-0.007843,-0.007843,0.007843,-1.960784,-1.960784,-1.960784,3
-2.823529,0,-5.647059,-0.007843,-0.007843,-0.007843,-1.960784,-1.960784,-1.960784,3
-2.823529,0,-5.647059,-0.007843,-0.007843,-0.007843,-1.960784,-1.960784,-1.960784,3
-2.823529,0,-5.647059,-0.007843,-0.007843,-0.007843,-1.960784,-1.960784,-1.960784,3
-2.823529,0,-5.647059,-0.007843,-0.007843,-0.007843,-1.960784,-1.960784,-1.960784,3
-2.823529,0,-5.647059,-0.007843,-0.007843,-0.007843,-1.960784,-1.960784,-1.960784,3
-2.823529,0,-5.647059,-0.007843,-0.007843,-0.007843,-1.960784,-1.960784,-1.960784,3
-2.823529,0,-5.647059,-0.007843,-0.007843,-0.007843,-1.960784,-1.960784,-1.960784,3
-2.823529,0,-5.647059,-0.007843,-0.007843,-0.007843,-1.960784,-1.960784,-1.960784,3
-2.823529,0,-5.647059,-0.007843,-0.007843,-0.007843,-1.960784,-1.960784,-1.960784,3
-2.823529,0,-5.647059,-0.007843,-0.007843,-0.007843,-1.960784,-1.960784,-1.960784,3
-2.823529,0,-5.647059,-0.007843,-0.007843,-0.007843,-1.960784,-1.960784,-1.960784,3
-2.823529,0,-5.647059,-0.007843,-0.007843,-0.007843,-1.960784,-1.960784,-1.960784,3
-2.823529,0,-5.647059,-0.007843,-0.007843,-0.007843,-1.960784,-1.960784,-1.960784,3
-2.823529,0,-5.647059,-0.007843,-0.007843,-0.007843,-1.960784,-1.960784,-1.960784,3
-2.823529,0,-5.647059,-0.007843,-0.007843,-0.007843,-1.960784,-1.960784,-1.960784,3
-2.823529,0,-5.647059,-0.007843,-0.007843,-0.007843,-1.960784,-1.960784,-1.960784,3
-2.823529,0,-5.647059,-0.007843,-0.007843,-0.007843,-1.960784,-1.960784,-1.960784,3
-2.823529,0,-5.647059,-0.007843,-0.007843,-0.007843,-1.960784,-1.960784,-1.960784,3
-2.823529,0,-5.647059,-0.007843,-0.007843,0.007843,-1.960784,-1.960784,-1.960784,3
-2.823529,0,-5.647059,-0.007843,-0.007843,-0.007843,-1.960784,-1.960784,-1.960784,3
-2.823529,0,-5.647059,-0.007843,-0.007843,-0.007843,-1.960784,-1.960784,-1.960784,3
-2.823529,0,-5.647059,-0.007843,-0.007843,-0.007843,-1.960784,-1.960784,-1.960784,3
-2.823529,0,-5.647059,-0.007843,-0.007843,-0.007843,-1.960784,-1.960784,-1.960784,3
-2.823529,0,-5.647059,-0.007843,-0.007843,-0.007843,-1.960784,-1.960784,-1.960784,3
-2.823529,0,-5.647059,-0.007843,-0.007843,-0.007843,-1.960784,-1.960784,-1.960784,3
-2.823529,0,-5.647059,-0.007843,-0.007843,0.007843,-1.960784,-1.960784,-1.960784,3
-2.823529,0,-5.647059,-0.007843,-0.007843,-0.007843,-1.960784,-1.960784,-1.960784,3
-2.823529,0,-5.647059,-0.007843,-0.007843,-0.007843,-1.960784,-1.960784,-1.960784,3
-2.823529,0,-5.647059,-0.007843,-0.007843,-0.007843,-1.960784,-1.960784,-1.960784,3
-2.823529,0,-5.647059,-0.007843,-0.007843,-0.007843,-1.960784,-1.960784,-1.960784,3
-2.823529,0,-5.647059,-0.007843,-0.007843,-0.007843,-1.960784,-1.960784,-1.960784,3
-2.823529,0,-5.647059,-0.007843,-0.007843,-0.007843,-1.960784,-1.960784,-1.960784,3
-2.823529,0,-5.647059,-0.007843,-0.007843,-0.007843,-1.960784,-1.960784,-1.960784,3
-2.823529,0,-5.647059,-0.007843,-0.007843,-0.007843,-1.960784,-1.960784,-1.960784,3
-2.823529,0,-5.647059,-0.007843,-0.007843,-0.007843,-1.960784,-1.960784,-1.960784,3
-2.823529,0,-5.647059,-0.007843,-0.007843,-0.007843,-1.960784,-1.960784,-1.960784,3
-2.823529,0,-5.647059,-0.007843,-0.007843,-0.007843,-1.960784,-1.960784,-1.960784,3
-2.823529,0,-5.647059,-0.007843,-0.007843,-0.007843,-1.960784,-1.960784,-1.960784,3
-2.823529,0,-5.647059,-0.007843,-0.007843,-0.007843,-1.960784,-1.960784,-1.960784,3
-2.823529,-2.823529,-5.647059,-0.007843,-0.007843,-0.007843,-1.960784,-1.960784,-1.960784,3
-2.823529,-2.823529,-5.647059,-0.007843,-0.007843,-0.007843,-1.960784,-1.960784,-1.960784,3
-2.823529,-2.823529,-5.647059,-0.007843,-0.007843,-0.007843,-1.960784,-1.960784,-1.960784,3
-2.823529,-2.823529,-5.647059,-0.007843,-0.007843,-0.007843,-1.960784,-1.960784,-1.960784,3
-2.823529,-2.823529,-5.647059,-0.007843,-0.007843,-0.007843,-1.960784,-1.960784,-1.960784,3
-2.823529,-2.823529,-5.647059,-0.007843,-0.007843,-0.007843,-1.960784,-1.960784,-1.960784,3
-2.823529,-2.823529,-5.647059,-0.007843,-0.007843,-0.007843,-1.960784,-1.960784,-1.960784,3
-2.823529,-2.823529,-5.647059,-0.007843,-0.007843,-0.007843,-1.960784,-1.960784,-1.960784,3
-2.823529,0,-5.647059,-0.007843,-0.007843,-0.007843,-1.960784,-1.960784,-1.960784,3
-2.823529,0,-5.647059,-0.007843,-0.007843,-0.007843,-1.960784,-1.960784,-1.960784,3
-2.823529,-2.823529,-5.647059,-0.007843,-0.007843,-0.007843,-1.960784,-1.960784,-1.960784,3
-2.823529,-2.823529,-5.647059,-0.007843,-0.007843,-0.007843,-1.960784,-1.960784,-1.960784,3
-2.823529,0,-5.647059,-0.007843,-0.007843,-0.007843,-1.960784,-1.960784,-1.960784,3
-2.823529,0,-5.647059,-0.007843,-0.007843,-0.007843,-1.960784,-1.960784,-1.960784,3
-2.823529,0,-5.647059,-0.007843,-0.007843,-0.007843,-1.960784,-1.960784,-1.960784,3
-2.823529,0,-5.647059,-0.007843,-0.007843,-0.007843,-1.960784,-1.960784,-1.960784,3
-2.823529,0,-5.647059,-0.007843,-0.007843,-0.007843,-1.960784,-1.960784,-1.960784,3
-2.823529,0,-5.647059,-0.007843,-0.007843,-0.007843,-1.960784,-1.960784,-1.960784,3
-2.823529,0,-5.647059,-0.007843,-0.007843,-0.007843,-1.960784,-1.960784,-1.960784,3
-2.823529,0,-5.647059,-0.007843,-0.007843,-0.007843,-1.960784,-1.960784,-1.960784,3
-2.823529,0,-5.647059,-0.007843,-0.007843,-0.007843,-1.960784,-1.960784,-1.960784,3
-2.823529,0,-5.647059,-0.007843,-0.007843,-0.007843,-1.960784,-1.960784,-1.960784,3
-2.823529,0,-5.647059,-0.007843,-0.007843,-0.007843,-1.960784,-1.960784,-1.960784,3
-2.823529,0,-5.647059,-0.007843,-0.007843,0.007843,-1.960784,-1.960784,-1.960784,3
-2.823529,0,-5.647059,-0.007843,-0.007843,-0.007843,-1.960784,-1.960784,-1.960784,3
-2.823529,0,-5.647059,-0.007843,-0.007843,-0.007843,-1.960784,-1.960784,-1.960784,3
-2.823529,0,-5.647059,-0.007843,-0.007843,-0.007843,-1.960784,-1.960784,-1.960784,3
0,0,-5.647059,-0.007843,-0.007843,-0.007843,-1.960784,-1.960784,-1.960784,3
0,0,-5.647059,-0.007843,-0.007843,-0.007843,-1.960784,-1.960784,-1.960784,3
0,0,-5.647059,-0.007843,-0.007843,-0.007843,-1.960784,-1.960784,-1.960784,3
0,0,-5.647059,-0.007843,-0.007843,-0.007843,-1.960784,-1.960784,-1.960784,3
0,-2.823529,-5.647059,-0.007843,-0.007843,-0.007843,-1.960784,-1.960784,-1.960784,3
0,-2.823529,-5.647059,-0.007843,-0.007843,-0.007843,-1.960784,-1.960784,-1.960784,3
0,-2.823529,-5.647059,-0.007843,-0.007843,-0.007843,-1.960784,-1.960784,-1.960784,3
0,-2.823529,-5.647059,-0.007843,-0.007843,-0.007843,-1.960784,-1.960784,-1.960784,3
0,-2.823529,-5.647059,-0.007843,-0.007843,-0.007843,-1.960784,-1.960784,-1.960784,3
0,-2.823529,-5.647059,-0.007843,-0.007843,0.007843,-1.960784,-1.960784,-1.960784,3
0,-2.823529,-5.647059,-0.007843,-0.007843,-0.007843,-1.960784,-1.960784,-1.960784,3
-2.823529,-2.823529,-5.647059,-0.007843,-0.007843,-0.007843,-1.960784,-1.960784,-1.960784,3
-2.823529,-2.823529,-5.647059,-0.007843,-0.007843,-0.007843,-1.960784,-1.960784,-1.960784,3
-2.823529,-2.823529,-5.647059,-0.007843,-0.007843,-0.007843,-1.960784,-1.960784,-1.960784,3
-2.823529,-2.823529,-5.647059,-0.007843,-0.007843,-0.007843,-1.960784,-1.960784,-1.960784,3
-2.823529,-2.823529,-5.647059,-0.007843,-0.007843,-0.007843,-1.960784,-1.960784,-1.960784,3
-2.823529,-2.823529,-5.647059,-0.007843,-0.007843,-0.007843,-1.960784,-1.960784,-1.960784,3
-2.823529,-2.823529,-5.647059,-0.007843,-0.007843,-0.007843,-1.960784,-1.960784,-1.960784,3
-2.823529,-2.823529,-5.647059,-0.007843,-0.007843,-0.007843,-1.960784,-1.960784,-1.960784,3
-2.823529,-2.823529,-5.647059,-0.007843,-0.007843,-0.007843,-1.960784,-1.960784,-1.960784,3
-2.823529,-2.823529,-5.647059,-0.007843,-0.007843,-0.007843,-1.960784,-1.960784,-1.960784,3
-2.823529,-2.823529,-5.647059,-0.007843,-0.007843,-0.007843,-1.960784,-1.960784,-1.960784,3
-2.823529,-2.823529,-5.647059,-0.007843,-0.007843,-0.007843,-1.960784,-1.960784,-1.960784,3
-2.823529,-2.823529,-5.647059,-0.007843,-0.007843,-0.007843,-1.960784,-1.960784,-1.960784,3
-2.823529,-2.823529,-5.647059,-0.007843,-0.007843,-0.007843,-1.960784,-1.960784,-1.960784,3
-2.823529,-2.823529,-5.647059,-0.007843,-0.007843,-0.007843,-1.960784,-1.960784,-1.960784,3
-2.823529,-2.823529,-5.647059,-0.007843,-0.007843,-0.007843,-1.960784,-1.960784,-1.960784,3
-2.823529,-2.823529,-5.647059,-0.007843,-0.007843,-0.007843,-1.960784,-1.960784,-1.960784,3
-2.823529,-2.823529,-5.647059,-0.007843,-0.007843,0.007843,-1.960784,-1.960784,-1.960784,3
-2.823529,-2.823529,-5.647059,-0.007843,-0.007843,-0.007843,-1.960784,-1.960784,-1.960784,3
-2.823529,-2.823529,-5.647059,-0.007843,-0.007843,-0.007843,-1.960784,-1.960784,-1.960784,3
-2.823529,-2.823529,-5.647059,-0.007843,-0.007843,-0.007843,-1.960784,-1.960784,-1.960784,3
-2.823529,-2.823529,-5.647059,-0.007843,-0.007843,-0.007843,-1.960784,-1.960784,-1.960784,3
-2.823529,-2.823529,-5.647059,-0.007843,-0.007843,-0.007843,-1.960784,-1.960784,-1.960784,3
0,-2.823529,-5.647059,-0.007843,-0.007843,-0.007843,-1.960784,-1.960784,-1.960784,3
0,-2.823529,-5.647059,-0.007843,-0.007843,-0.007843,-1.960784,-1.960784,-1.960784,3
0,-2.823529,-5.647059,-0.007843,-0.007843,-0.007843,-1.960784,-1.960784,-1.960784,3
0,-2.823529,-5.647059,-0.007843,-0.007843,-0.007843,-1.960784,-1.960784,-1.960784,3
0,-2.823529,-5.647059,-0.007843,-0.007843,-0.007843,-1.960784,-1.960784,-1.960784,3
0,-2.823529,-5.647059,-0.007843,-0.007843,-0.007843,-1.960784,-1.960784,-1.960784,3
0,-2.823529,-5.647059,-0.007843,-0.007843,-0.007843,-1.960784,-1.960784,-1.960784,3
0,-2.823529,-5.647059,-0.007843,-0.007843,-0.007843,-1.960784,-1.960784,-1.960784,3
0,-2.823529,-5.647059,-0.007843,-0.007843,-0.007843,-1.960784,-1.960784,-1.960784,3
0,-2.823529,-5.647059,-0.007843,-0.007843,-0.007843,-1.960784,-1.960784,-1.960784,3
0,-2.823529,-5.647059,-0.007843,-0.007843,-0.007843,-1.960784,-1.960784,-1.960784,3
0,-2.823529,-5.647059,-0.007843,-0.007843,-0.007843,-1.960784,-1.960784,-1.960784,3
0,-2.823529,-5.647059,-0.007843,-0.007843,-0.007843,-1.960784,-1.960784,-1.960784,3
0,-2.823529,-5.647059,-0.007843,-0.007843,-0.007843,-1.960784,-1.960784,-1.960784,3
0,-2.823529,-5.647059,-0.007843,-0.007843,-0.007843,-1.960784,-1.960784,-1.960784,3
0,-2.823529,-5.647059,-0.007843,-0.007843,-0.007843,-1.960784,-1.960784,-1.960784,3
0,-2.823529,-5.647059,-0.007843,-0.007843,-0.007843,-1.960784,-1.960784,-1.960784,3
0,-2.823529,-5.647059,-0.007843,-0.007843,-0.007843,-1.960784,-1.960784,-1.960784,3
0,-2.823529,-5.647059,-0.007843,-0.007843,-0.007843,-1.960784,-1.960784,-1.960784,3
0,-2.823529,-5.647059,-0.007843,-0.007843,-0.007843,-1.960784,-1.960784,-1.960784,3
0,-2.823529,-5.647059,-0.007843,-0.007843,-0.007843,-1.960784,-1.960784,-1.960784,3
0,-2.823529,-5.647059,-0.007843,-0.007843,-0.007843,-1.960784,-1.960784,-1.960784,3
0,-2.823529,-5.647059,-0.007843,-0.007843,-0.007843,-1.960784,-1.960784,-1.960784,3
0,-2.823529,-5.647059,-0.007843,-0.007843,-0.007843,-1.960784,-1.960784,-1.960784,3
0,-2.823529,-5.647059,-0.007843,-0.007843,0.007843,-1.960784,-1.960784,-1.960784,3
0,-2.823529,-5.647059,-0.007843,-0.007843,-0.007843,-1.960784,-1.960784,-1.960784,3
0,-2.823529,-5.647059,-0.007843,-0.007843,-0.007843,-1.960784,-1.960784,-1.960784,3
0,-2.823529,-5.647059,-0.007843,-0.007843,-0.007843,-1.960784,-1.960784,-1.960784,3
0,-2.823529,-5.647059,-0.007843,-0.007843,-0.007843,-1.960784,-1.960784,-1.960784,3
0,-2.823529,-5.647059,-0.007843,-0.007843,-0.007843,-1.960784,-1.960784,-1.960784,3
0,-2.823529,-5.647059,-0.007843,-0.007843,-0.007843,-1.960784,-1.960784,-1.960784,3
0,-2.823529,-5.647059,-0.007843,-0.007843,-0.007843,-1.960784,-1.960784,-1.960784,3
0,-2.823529,-5.647059,-0.007843,-0.007843,-0.007843,-1.960784,-1.960784,-1.960784,3
0,-2.823529,-5.647059,-0.007843,-0.007843,-0.007843,-1.960784,-1.960784,-1.960784,3
0,0,-5.647059,-0.007843,-0.007843,-0.007843,-1.960784,-1.960784,-1.960784,3
0,0,-5.647059,-0.007843,-0.007843,-0.007843,-1.960784,-1.960784,-1.960784,3
0,0,-5.647059,-0.007843,-0.007843,-0.007843,-1.960784,-1.960784,-1.960784,3
0,0,-5.647059,-0.007843,-0.007843,-0.007843,-1.960784,-1.960784,-1.960784,3
-2.823529,0,-5.647059,-0.007843,-0.007843,-0.007843,-1.960784,-1.960784,-1.960784,3
-2.823529,0,-5.647059,-0.007843,-0.007843,-0.007843,-1.960784,-1.960784,-1.960784,3
-2.823529,0,-5.647059,-0.007843,-0.007843,-0.007843,-1.960784,-1.960784,-1.960784,3
-2.823529,0,-5.647059,-0.007843,-0.007843,-0.007843,-1.960784,-1.960784,-1.960784,3
-2.823529,0,-5.647059,-0.007843,-0.007843,-0.007843,-1.960784,-1.960784,-1.960784,3
-2.823529,0,-5.647059,-0.007843,-0.007843,-0.007843,-1.960784,-1.960784,-1.960784,3
0,0,-5.647059,-0.007843,-0.007843,-0.007843,-1.960784,-1.960784,-1.960784,3
-2.823529,0,-5.647059,-0.007843,-0.007843,-0.007843,-1.960784,-1.960784,-1.960784,3
-2.823529,0,-5.647059,-0.007843,-0.007843,-0.007843,-1.960784,-1.960784,-1.960784,3
-2.823529,0,-5.647059,-0.007843,-0.007843,-0.007843,-1.960784,-1.960784,-1.960784,3
0,0,-5.647059,-0.007843,-0.007843,-0.007843,-1.960784,-1.960784,-1.960784,3
0,0,-5.647059,-0.007843,-0.007843,-0.007843,-1.960784,-1.960784,-1.960784,3
0,0,-5.647059,-0.007843,-0.007843,-0.007843,-1.960784,-1.960784,-1.960784,3
0,0,-5.647059,-0.007843,-0.007843,-0.007843,-1.960784,-1.960784,-1.960784,3
0,0,-5.647059,-0.007843,-0.007843,-0.007843,-1.960784,-1.960784,-1.960784,3
0,0,-5.647059,-0.007843,-0.007843,-0.007843,-1.960784,-1.960784,-1.960784,3
0,0,-5.647059,-0.007843,-0.007843,-0.007843,-1.960784,-1.960784,-1.960784,3
0,0,-5.647059,-0.007843,-0.007843,-0.007843,-1.960784,-1.960784,-1.960784,3
0,0,-5.647059,-0.007843,-0.007843,-0.007843,-1.960784,-1.960784,-1.960784,3
0,0,-5.647059,-0.007843,-0.007843,-0.007843,-1.960784,-1.960784,-1.960784,3
0,0,-5.647059,-0.007843,-0.007843,-0.007843,-1.960784,-1.960784,-1.960784,3
0,-2.823529,-5.647059,-0.007843,-0.007843,-0.007843,-1.960784,-1.960784,-1.960784,3
0,-2.823529,-5.647059,-0.007843,-0.007843,-0.007843,-1.960784,-1.960784,-1.960784,3
0,-2.823529,-5.647059,-0.007843,-0.007843,-0.007843,-1.960784,-1.960784,-1.960784,3
0,-2.823529,-5.647059,-0.007843,-0.007843,-0.007843,-1.960784,-1.960784,-1.960784,3
0,-2.823529,-5.647059,-0.007843,-0.007843,-0.007843,-1.960784,-1.960784,-1.960784,3
0,-2.823529,-5.647059,-0.007843,-0.007843,-0.007843,-1.960784,-1.960784,-1.960784,3
0,-2.823529,-5.647059,-0.007843,-0.007843,-0.007843,-1.960784,-1.960784,-1.960784,3
0,-2.823529,-5.647059,-0.007843,-0.007843,-0.007843,-1.960784,-1.960784,-1.960784,3
0,-2.823529,-5.647059,-0.007843,-0.007843,-0.007843,-1.960784,-1.960784,-1.960784,3
0,-2.823529,-5.647059,-0.007843,-0.007843,-0.007843,-1.960784,-1.960784,-1.960784,3
0,-2.823529,-5.647059,-0.007843,-0.007843,-0.007843,-1.960784,-1.960784,-1.960784,3
-2.823529,0,-5.647059,0.007843,-0.054902,-0.039216,-1.960784,1.960784,-1.960784,3
0,0,-5.647059,0.007843,-0.007843,-0.054902,-1.960784,-1.960784,-1.960784,3
0,0,-5.647059,-0.007843,0.007843,-0.007843,-1.960784,-1.960784,-1.960784,3
0,0,-5.647059,-0.007843,-0.007843,-0.007843,-1.960784,-1.960784,-1.960784,3
0,0,-5.647059,-0.007843,-0.007843,-0.007843,-1.960784,-1.960784,-1.960784,3
0,0,-5.647059,-0.007843,-0.007843,-0.007843,-1.960784,-1.960784,-1.960784,3
-2.823529,-2.823529,-5.647059,0.133333,0.133333,0.086275,-9.803922,-9.803922,-1.960784,3
-2.823529,-2.823529,-5.647059,0.086275,0.164706,0.196078,-5.882353,-13.72549,-1.960784,3
-2.823529,-2.823529,-5.647059,0.007843,0.039216,0.070588,-1.960784,-1.960784,-1.960784,3
-2.823529,-2.823529,-5.647059,-0.007843,-0.007843,0.007843,-1.960784,-1.960784,-1.960784,3
-2.823529,-2.823529,-5.647059,-0.007843,-0.007843,-0.007843,-1.960784,-1.960784,-1.960784,3
-2.823529,-2.823529,-5.647059,-0.007843,-0.007843,-0.007843,-1.960784,-1.960784,-1.960784,3
-2.823529,-2.823529,-5.647059,-0.007843,-0.007843,-0.023529,-1.960784,-1.960784,-1.960784,3
-2.823529,-2.823529,-5.647059,-0.007843,-0.007843,-0.007843,-1.960784,-1.960784,-1.960784,3
-2.823529,-2.823529,-5.647059,-0.007843,-0.007843,-0.007843,-1.960784,-1.960784,-1.960784,3
-2.823529,-2.823529,-5.647059,-0.007843,-0.007843,0.007843,-1.960784,-1.960784,-1.960784,3
-2.823529,-2.823529,-5.647059,-0.007843,-0.007843,-0.007843,-1.960784,-1.960784,-1.960784,3
-2.823529,-2.823529,-5.647059,-0.007843,-0.007843,-0.007843,-1.960784,-1.960784,-1.960784,3
-2.823529,-2.823529,-5.647059,-0.007843,-0.007843,-0.007843,-1.960784,-1.960784,-1.960784,3
-2.823529,-2.823529,-5.647059,-0.007843,-0.007843,-0.007843,-1.960784,-1.960784,-1.960784,3
-2.823529,-2.823529,-5.647059,-0.007843,-0.007843,-0.007843,-1.960784,-1.960784,-1.960784,3
-2.823529,-2.823529,-5.647059,-0.007843,-0.007843,-0.007843,-1.960784,-1.960784,-1.960784,3
-2.823529,-2.823529,-5.647059,-0.007843,-0.007843,-0.023529,-1.960784,-1.960784,-1.960784,3
0,-2.823529,-5.647059,0.007843,0.180392,0.415686,1.960784,-13.72549,-5.882353,3
0,-2.823529,-5.647059,-0.054902,-0.039216,-0.180392,-1.960784,1.960784,-1.960784,3
0,-2.823529,-5.647059,-0.007843,0.007843,-0.007843,-1.960784,-1.960784,-1.960784,3
0,-2.823529,-5.647059,-0.007843,-0.007843,-0.007843,-1.960784,-1.960784,-1.960784,3
0,-2.823529,-5.647059,-0.007843,-0.007843,-0.007843,-1.960784,-1.960784,-1.960784,3
0,-2.823529,-5.647059,-0.007843,-0.007843,0.007843,-1.960784,-1.960784,-1.960784,3
0,-2.823529,-5.647059,-0.007843,-0.007843,-0.007843,-1.960784,-1.960784,-1.960784,3
0,-2.823529,-5.647059,-0.007843,-0.007843,-0.007843,-1.960784,-1.960784,-1.960784,3
0,-2.823529,-5.647059,-0.007843,-0.007843,-0.007843,-1.960784,-1.960784,-1.960784,3
0,-2.823529,-5.647059,-0.007843,-0.007843,-0.007843,-1.960784,-1.960784,-1.960784,3
0,-2.823529,-5.647059,-0.007843,-0.007843,-0.007843,-1.960784,-1.960784,-1.960784,3
0,-2.823529,-5.647059,-0.007843,-0.007843,-0.007843,-1.960784,-1.960784,-1.960784,3
0,-2.823529,-5.647059,-0.007843,-0.007843,-0.007843,-1.960784,-1.960784,-1.960784,3
0,-2.823529,-5.647059,-0.007843,-0.007843,-0.007843,-1.960784,-1.960784,-1.960784,3
0,-2.823529,-5.647059,-0.007843,-0.007843,-0.007843,-1.960784,-1.960784,-1.960784,3
0,-2.823529,-5.647059,-0.007843,-0.007843,-0.007843,-1.960784,-1.960784,-1.960784,3
0,-2.823529,-5.647059,-0.007843,-0.007843,-0.007843,-1.960784,-1.960784,-1.960784,3
0,-2.823529,-5.647059,-0.007843,-0.007843,-0.007843,-1.960784,-1.960784,-1.960784,3
0,-2.823529,-5.647059,-0.007843,-0.007843,-0.007843,-1.960784,-1.960784,-1.960784,3
0,-2.823529,-5.647059,-0.007843,-0.007843,-0.007843,-1.960784,-1.960784,-1.960784,3
0,-2.823529,-5.647059,-0.007843,-0.007843,-0.007843,-1.960784,-1.960784,-1.960784,3
0,-2.823529,-5.647059,-0.007843,-0.007843,-0.007843,-1.960784,-1.960784,-1.960784,3
0,-2.823529,-5.647059,-0.007843,-0.007843,-0.007843,-1.960784,-1.960784,-1.960784,3
0,-2.823529,-5.647059,-0.007843,-0.007843,-0.007843,-1.960784,-1.960784,-1.960784,3
0,-2.823529,-5.647059,-0.007843,-0.007843,-0.007843,-1.960784,-1.960784,-1.960784,3
0,-2.823529,-5.647059,-0.007843,-0.007843,-0.007843,-1.960784,-1.960784,-1.960784,3
0,-2.823529,-5.647059,-0.007843,-0.007843,-0.007843,-1.960784,-1.960784,-1.960784,3
0,-2.823529,-5.647059,-0.007843,-0.007843,-0.007843,-1.960784,-1.960784,-1.960784,3
0,-2.823529,-5.647059,-0.007843,-0.007843,-0.007843,-1.960784,-1.960784,-1.960784,3
0,-2.823529,-5.647059,-0.007843,-0.007843,-0.023529,-1.960784,-1.960784,-1.960784,3
0,-2.823529,-5.647059,-0.007843,-0.007843,-0.007843,-1.960784,-1.960784,-1.960784,3
0,-2.823529,-5.647059,-0.007843,-0.007843,-0.007843,-1.960784,-1.960784,-1.960784,3
0,-2.823529,-5.647059,-0.007843,-0.007843,-0.007843,-1.960784,-1.960784,-1.960784,3
0,-2.823529,-5.647059,-0.007843,-0.007843,-0.007843,-1.960784,-1.960784,-1.960784,3
0,-2.823529,-5.647059,-0.007843,-0.007843,-0.007843,-1.960784,-1.960784,-1.960784,3
0,-2.823529,-5.647059,-0.007843,-0.007843,-0.007843,-1.960784,-1.960784,-1.960784,3
0,-2.823529,-5.647059,-0.007843,-0.007843,-0.007843,-1.960784,-1.960784,-1.960784,3
0,-2.823529,-5.647059,-0.007843,-0.007843,-0.007843,-1.960784,-1.960784,-1.960784,3
0,-2.823529,-5.647059,-0.007843,-0.007843,-0.007843,-1.960784,-1.960784,-1.960784,3
0,-2.823529,-5.647059,-0.007843,-0.007843,-0.007843,-1.960784,-1.960784,-1.960784,3
0,-2.823529,-5.647059,-0.007843,-0.007843,-0.007843,-1.960784,-1.960784,-1.960784,3
0,-2.823529,-5.647059,-0.007843,-0.007843,-0.007843,-1.960784,-1.960784,-1.960784,3
0,-2.823529,-5.647059,-0.007843,-0.007843,-0.007843,-1.960784,-1.960784,-1.960784,3
0,-2.823529,-5.647059,-0.007843,-0.007843,-0.007843,-1.960784,-1.960784,-1.960784,3
0,-2.823529,-5.647059,-0.007843,-0.007843,-0.007843,-1.960784,-1.960784,-1.960784,3
0,-2.823529,-5.647059,-0.007843,-0.007843,-0.007843,-1.960784,-1.960784,-1.960784,3
0,-2.823529,-5.647059,-0.007843,-0.007843,-0.007843,-1.960784,-1.960784,-1.960784,3
0,-2.823529,-5.647059,-0.007843,-0.007843,-0.007843,-1.960784,-1.960784,-1.960784,3
0,-2.823529,-5.647059,-0.007843,-0.007843,-0.007843,-1.960784,-1.960784,-1.960784,3
0,-2.823529,-5.647059,-0.007843,-0.007843,-0.007843,-1.960784,-1.960784,-1.960784,3
0,-2.823529,-5.647059,-0.007843,-0.007843,-0.007843,-1.960784,-1.960784,-1.960784,3
0,-2.823529,-5.647059,-0.007843,-0.007843,-0.007843,-1.960784,-1.960784,-1.960784,3
0,-2.823529,-5.647059,-0.007843,-0.007843,-0.007843,-1.960784,-1.960784,-1.960784,3
0,-2.823529,-5.647059,-0.007843,-0.007843,-0.007843,-1.960784,-1.960784,-1.960784,3
0,-2.823529,-5.647059,-0.007843,-0.007843,-0.007843,-1.960784,-1.960784,-1.960784,3
0,-2.823529,-5.647059,-0.007843,-0.007843,-0.007843,-1.960784,-1.960784,-1.960784,3
0,-2.823529,-5.647059,-0.007843,-0.007843,-0.007843,-1.960784,-1.960784,-1.960784,3
0,-2.823529,-5.647059,-0.007843,-0.007843,-0.007843,-1.960784,-1.960784,-1.960784,3
0,-2.823529,-5.647059,-0.007843,-0.007843,-0.007843,-1.960784,-1.960784,-1.960784,3
0,-2.823529,-5.647059,-0.007843,-0.007843,-0.007843,-1.960784,-1.960784,-1.960784,3
0,-2.823529,-5.647059,-0.007843,-0.007843,-0.007843,-1.960784,-1.960784,-1.960784,3
0,-2.823529,-5.647059,-0.007843,-0.007843,-0.007843,-1.960784,-1.960784,-1.960784,3
0,-2.823529,-5.647059,-0.007843,-0.007843,-0.007843,-1.960784,-1.960784,-1.960784,3
0,-2.823529,-5.647059,-0.007843,-0.007843,-0.007843,-1.960784,-1.960784,-1.960784,3
0,-2.823529,-5.647059,-0.007843,-0.007843,-0.007843,-1.960784,-1.960784,-1.960784,3
0,-2.823529,-5.647059,-0.007843,-0.007843,-0.007843,-1.960784,-1.960784,-1.960784,3
0,-2.823529,-5.647059,-0.007843,-0.007843,-0.007843,-1.960784,-1.960784,-1.960784,3
0,-2.823529,-5.647059,-0.007843,-0.007843,-0.007843,-1.960784,-1.960784,-1.960784,3
0,-2.823529,-5.647059,-0.007843,-0.007843,-0.007843,-1.960784,-1.960784,-1.960784,3
0,-2.823529,-5.647059,-0.007843,-0.007843,-0.007843,-1.960784,-1.960784,-1.960784,3
0,-2.823529,-5.647059,-0.007843,-0.007843,-0.007843,-1.960784,-1.960784,-1.960784,3
0,-2.823529,-5.647059,-0.007843,-0.007843,-0.007843,-1.960784,-1.960784,-1.960784,3
0,-2.823529,-5.647059,-0.007843,-0.007843,-0.007843,-1.960784,-1.960784,-1.960784,3
0,-2.823529,-5.647059,-0.007843,-0.007843,-0.007843,-1.960784,-1.960784,-1.960784,3
0,-2.823529,-5.647059,-0.007843,-0.007843,-0.007843,-1.960784,-1.960784,-1.960784,3
0,-2.823529,-5.647059,-0.007843,-0.007843,-0.007843,-1.960784,-1.960784,-1.960784,3
0,-2.823529,-5.647059,-0.007843,-0.007843,-0.007843,-1.960784,-1.960784,-1.960784,3
0,-2.823529,-5.647059,-0.007843,-0.007843,-0.007843,-1.960784,-1.960784,-1.960784,3
0,-2.823529,-5.647059,-0.007843,-0.007843,-0.007843,-1.960784,-1.960784,-1.960784,3
0,-2.823529,-5.647059,-0.007843,-0.007843,-0.007843,-1.960784,-1.960784,-1.960784,3
0,-2.823529,-5.647059,-0.007843,-0.007843,-0.007843,-1.960784,-1.960784,-1.960784,3
0,-2.823529,-5.647059,-0.007843,-0.007843,-0.007843,-1.960784,-1.960784,-1.960784,3
0,-2.823529,-5.647059,-0.007843,-0.007843,0.007843,-1.960784,-1.960784,-1.960784,3
0,-2.823529,-5.647059,-0.007843,-0.007843,-0.007843,-1.960784,-1.960784,-1.960784,3
0,-2.823529,-5.647059,-0.007843,-0.007843,-0.007843,-1.960784,-1.960784,-1.960784,3
0,-2.823529,-5.647059,-0.007843,-0.007843,-0.007843,-1.960784,-1.960784,-1.960784,3
0,-2.823529,-5.647059,-0.007843,-0.007843,-0.007843,-1.960784,-1.960784,-1.960784,3
0,-2.823529,-5.647059,-0.007843,-0.007843,-0.007843,-1.960784,-1.960784,-1.960784,3
0,-2.823529,-5.647059,-0.007843,-0.007843,-0.007843,-1.960784,-1.960784,-1.960784,3
0,-2.823529,-5.647059,-0.007843,-0.007843,-0.007843,-1.960784,-1.960784,-1.960784,3
0,-2.823529,-5.647059,-0.007843,-0.007843,-0.007843,-1.960784,-1.960784,-1.960784,3
-2.823529,-2.823529,-5.647059,-0.007843,-0.007843,-0.007843,-1.960784,-1.960784,-1.960784,3
0,-2.823529,-5.647059,-0.007843,-0.007843,-0.007843,-1.960784,-1.960784,-1.960784,3
0,-2.823529,-5.647059,-0.007843,-0.007843,-0.007843,-1.960784,-1.960784,-1.960784,3
0,-2.823529,-5.647059,-0.007843,-0.007843,-0.007843,-1.960784,-1.960784,-1.960784,3
0,-2.823529,-5.647059,-0.007843,-0.007843,-0.007843,-1.960784,-1.960784,-1.960784,3
0,-2.823529,-5.647059,-0.007843,-0.007843,-0.007843,-1.960784,-1.960784,-1.960784,3
0,-2.823529,-5.647059,-0.007843,-0.007843,-0.007843,-1.960784,-1.960784,-1.960784,3
0,-2.823529,-5.647059,-0.007843,-0.007843,-0.007843,-1.960784,-1.960784,-1.960784,3
0,-2.823529,-5.647059,-0.007843,-0.007843,-0.007843,-1.960784,-1.960784,-1.960784,3
0,-2.823529,-5.647059,-0.007843,-0.007843,-0.007843,-1.960784,-1.960784,-1.960784,3
0,-2.823529,-5.647059,-0.007843,-0.007843,-0.007843,-1.960784,-1.960784,-1.960784,3
0,-2.823529,-5.647059,-0.007843,-0.007843,-0.007843,-1.960784,-1.960784,-1.960784,3
0,-2.823529,-5.647059,-0.007843,-0.007843,-0.007843,-1.960784,-1.960784,-1.960784,3
0,-2.823529,-5.647059,-0.007843,-0.007843,-0.007843,-1.960784,-1.960784,-1.960784,3
0,-2.823529,-5.647059,-0.007843,-0.007843,-0.007843,-1.960784,-1.960784,-1.960784,3
0,-2.823529,-5.647059,-0.007843,-0.007843,-0.007843,-1.960784,-1.960784,-1.960784,3
0,-2.823529,-5.647059,-0.007843,-0.007843,-0.007843,-1.960784,-1.960784,-1.960784,3
0,-2.823529,-5.647059,-0.007843,-0.007843,-0.007843,-1.960784,-1.960784,-1.960784,3
0,-2.823529,-5.647059,-0.007843,-0.007843,-0.007843,-1.960784,-1.960784,-1.960784,3
0,-2.823529,-5.647059,-0.007843,-0.007843,-0.007843,-1.960784,-1.960784,-1.960784,3
0,-2.823529,-5.647059,-0.007843,-0.007843,-0.007843,-1.960784,-1.960784,-1.960784,3
0,-2.823529,-5.647059,-0.007843,-0.007843,-0.007843,-1.960784,-1.960784,-1.960784,3
0,-2.823529,-5.647059,-0.007843,-0.007843,0.007843,-1.960784,-1.960784,-1.960784,3
-2.823529,-2.823529,-5.647059,-0.007843,-0.007843,-0.007843,-1.960784,-1.960784,-1.960784,3
0,-2.823529,-5.647059,-0.007843,-0.007843,-0.007843,-1.960784,-1.960784,-1.960784,3
0,-2.823529,-5.647059,-0.007843,-0.007843,-0.007843,-1.960784,-1.960784,-1.960784,3
0,-2.823529,-5.647059,-0.007843,-0.007843,-0.007843,-1.960784,-1.960784,-1.960784,3
0,-2.823529,-5.647059,-0.007843,-0.007843,-0.007843,-1.960784,-1.960784,-1.960784,3
0,-2.823529,-5.647059,-0.007843,-0.007843,-0.007843,-1.960784,-1.960784,-1.960784,3
0,-2.823529,-5.647059,-0.007843,-0.007843,-0.007843,-1.960784,-1.960784,-1.960784,3
0,-2.823529,-5.647059,-0.007843,-0.007843,-0.007843,-1.960784,-1.960784,-1.960784,3
0,-2.823529,-5.647059,-0.007843,-0.007843,-0.007843,-1.960784,-1.960784,-1.960784,3
0,-2.823529,-5.647059,-0.007843,-0.007843,0.007843,-1.960784,-1.960784,-1.960784,3
0,-2.823529,-5.647059,-0.007843,-0.007843,-0.007843,-1.960784,-1.960784,-1.960784,3
-2.823529,-2.823529,-5.647059,-0.007843,-0.007843,-0.007843,-1.960784,-1.960784,-1.960784,3
-2.823529,-2.823529,-5.647059,-0.007843,-0.007843,-0.007843,-1.960784,-1.960784,-1.960784,3
-2.823529,-2.823529,-5.647059,-0.007843,-0.007843,-0.007843,-1.960784,-1.960784,-1.960784,3
-2.823529,-2.823529,-5.647059,-0.007843,-0.007843,-0.007843,-1.960784,-1.960784,-1.960784,3
-2.823529,-2.823529,-5.647059,-0.007843,-0.007843,-0.007843,-1.960784,-1.960784,-1.960784,3
-2.823529,-2.823529,-5.647059,-0.007843,-0.007843,-0.007843,-1.960784,-1.960784,-1.960784,3
-2.823529,-2.823529,-5.647059,-0.007843,-0.007843,-0.007843,-1.960784,-1.960784,-1.960784,3
-2.823529,-2.823529,-5.647059,-0.007843,-0.007843,-0.007843,-1.960784,-1.960784,-1.960784,3
-2.823529,-2.823529,-5.647059,-0.007843,-0.007843,-0.007843,-1.960784,-1.960784,-1.960784,3
-2.823529,-2.823529,-5.647059,-0.007843,-0.007843,-0.007843,-1.960784,-1.960784,-1.960784,3
-2.823529,-2.823529,-5.647059,-0.007843,-0.007843,-0.007843,-1.960784,-1.960784,-1.960784,3
-2.823529,-2.823529,-5.647059,-0.007843,-0.007843,-0.007843,-1.960784,-1.960784,-1.960784,3
-2.823529,-2.823529,-5.647059,-0.007843,-0.007843,-0.007843,-1.960784,-1.960784,-1.960784,3
-2.823529,-2.823529,-5.647059,-0.007843,-0.007843,-0.007843,-1.960784,-1.960784,-1.960784,3
-2.823529,-2.823529,-5.647059,-0.007843,-0.007843,-0.007843,-1.960784,-1.960784,-1.960784,3
-2.823529,-2.823529,-5.647059,-0.007843,-0.007843,-0.007843,-1.960784,-1.960784,-1.960784,3
-2.823529,-2.823529,-5.647059,-0.007843,-0.007843,-0.007843,-1.960784,-1.960784,-1.960784,3
-2.823529,-2.823529,-5.647059,-0.007843,-0.007843,-0.007843,-1.960784,-1.960784,-1.960784,3
-2.823529,-2.823529,-5.647059,-0.007843,-0.007843,-0.007843,-1.960784,-1.960784,-1.960784,3
-2.823529,-2.823529,-5.647059,-0.007843,-0.007843,-0.007843,-1.960784,-1.960784,-1.960784,3
-2.823529,-2.823529,-5.647059,-0.007843,-0.007843,-0.007843,-1.960784,-1.960784,-1.960784,3
-2.823529,-2.823529,-5.647059,-0.007843,-0.007843,-0.007843,-1.960784,-1.960784,-1.960784,3
-2.823529,-2.823529,-5.647059,-0.007843,-0.007843,-0.007843,-1.960784,-1.960784,-1.960784,3
-2.823529,-2.823529,-5.647059,-0.007843,-0.007843,-0.007843,-1.960784,-1.960784,-1.960784,3
-2.823529,-2.823529,-5.647059,-0.007843,-0.007843,-0.007843,-1.960784,-1.960784,-1.960784,3
0,-2.823529,-5.647059,-0.007843,-0.007843,-0.007843,-1.960784,-1.960784,-1.960784,3
0,-2.823529,-5.647059,-0.007843,-0.007843,-0.007843,-1.960784,-1.960784,-1.960784,3
0,-2.823529,-5.647059,-0.007843,-0.007843,-0.007843,-1.960784,-1.960784,-1.960784,3
0,-2.823529,-5.647059,-0.007843,-0.007843,-0.007843,-1.960784,-1.960784,-1.960784,3
0,-2.823529,-5.647059,-0.007843,-0.007843,-0.007843,-1.960784,-1.960784,-1.960784,3
0,-2.823529,-5.647059,-0.007843,-0.007843,-0.007843,-1.960784,-1.960784,-1.960784,3
0,-2.823529,-5.647059,-0.007843,-0.007843,-0.007843,-1.960784,-1.960784,-1.960784,3
0,-2.823529,-5.647059,-0.007843,-0.007843,-0.007843,-1.960784,-1.960784,-1.960784,3
0,-2.823529,-5.647059,-0.007843,-0.007843,-0.007843,-1.960784,-1.960784,-1.960784,3
0,-2.823529,-5.647059,-0.007843,-0.007843,-0.007843,-1.960784,-1.960784,-1.960784,3
0,-2.823529,-5.647059,-0.007843,-0.007843,-0.007843,-1.960784,-1.960784,-1.960784,3
0,-2.823529,-5.647059,-0.007843,-0.007843,-0.007843,-1.960784,-1.960784,-1.960784,3
0,-2.823529,-5.647059,-0.007843,-0.007843,-0.007843,-1.960784,-1.960784,-1.960784,3
0,-2.823529,-5.647059,-0.007843,-0.007843,0.007843,-1.960784,-1.960784,-1.960784,3
0,-2.823529,-5.647059,-0.007843,-0.007843,-0.007843,-1.960784,-1.960784,-1.960784,3
0,-2.823529,-5.647059,-0.007843,-0.007843,-0.007843,-1.960784,-1.960784,-1.960784,3
0,-2.823529,-5.647059,-0.007843,-0.007843,0.007843,-1.960784,-1.960784,-1.960784,3
-2.823529,-2.823529,-5.647059,-0.007843,-0.007843,-0.007843,-1.960784,-1.960784,-1.960784,3
-2.823529,-2.823529,-5.647059,-0.007843,-0.007843,-0.007843,-1.960784,-1.960784,-1.960784,3
-2.823529,-2.823529,-5.647059,-0.007843,-0.007843,-0.007843,-1.960784,-1.960784,-1.960784,3
-2.823529,-2.823529,-5.647059,-0.007843,-0.007843,-0.007843,-1.960784,-1.960784,-1.960784,3
-2.823529,-2.823529,-5.647059,-0.007843,-0.007843,-0.023529,-1.960784,-1.960784,-1.960784,3
-2.823529,-2.823529,-5.647059,-0.007843,-0.007843,-0.007843,-1.960784,-1.960784,-1.960784,3
-2.823529,-2.823529,-5.647059,-0.007843,-0.007843,-0.007843,-1.960784,-1.960784,-1.960784,3
-2.823529,-2.823529,-5.647059,-0.007843,-0.007843,-0.007843,-1.960784,-1.960784,-1.960784,3
-2.823529,-2.823529,-5.647059,-0.007843,-0.007843,-0.007843,-1.960784,-1.960784,-1.960784,3
-2.823529,-2.823529,-5.647059,-0.007843,-0.007843,-0.007843,-1.960784,-1.960784,-1.960784,3
-2.823529,-2.823529,-5.647059,-0.007843,-0.007843,-0.007843,-1.960784,-1.960784,-1.960784,3
-2.823529,-2.823529,-5.647059,-0.007843,-0.007843,-0.007843,-1.960784,-1.960784,-1.960784,3
-2.823529,-2.823529,-5.647059,-0.007843,-0.007843,-0.007843,-1.960784,-1.960784,-1.960784,3
-2.823529,-2.823529,-5.647059,-0.007843,-0.007843,-0.007843,-1.960784,-1.960784,-1.960784,3
-2.823529,-2.823529,-5.647059,-0.007843,-0.007843,-0.007843,-1.960784,-1.960784,-1.960784,3
-2.823529,-2.823529,-5.647059,-0.007843,-0.007843,-0.007843,-1.960784,-1.960784,-1.960784,3
-2.823529,-2.823529,-5.647059,-0.007843,-0.007843,-0.007843,-1.960784,-1.960784,-1.960784,3
-2.823529,-2.823529,-5.647059,-0.007843,-0.007843,-0.007843,-1.960784,-1.960784,-1.960784,3
-2.823529,-2.823529,-5.647059,-0.007843,-0.007843,-0.007843,-1.960784,-1.960784,-1.960784,3
-2.823529,-2.823529,-5.647059,-0.007843,-0.007843,0.007843,-1.960784,-1.960784,-1.960784,3
-2.823529,-2.823529,-5.647059,-0.007843,-0.007843,-0.007843,-1.960784,-1.960784,-1.960784,3
-2.823529,-2.823529,-5.647059,-0.007843,-0.007843,-0.007843,-1.960784,-1.960784,-1.960784,3
-2.823529,-2.823529,-5.647059,-0.007843,-0.007843,-0.007843,-1.960784,-1.960784,-1.960784,3
-2.823529,-2.823529,-5.647059,-0.007843,-0.007843,-0.007843,-1.960784,-1.960784,-1.960784,3
-2.823529,-2.823529,-5.647059,-0.007843,0.007843,0.023529,-1.960784,-1.960784,-1.960784,3
-2.823529,-2.823529,-5.647059,-0.007843,-0.007843,-0.023529,-1.960784,-1.960784,-1.960784,3
-2.823529,-2.823529,-5.647059,-0.007843,-0.007843,0.007843,-1.960784,-1.960784,-1.960784,3
-2.823529,-2.823529,-5.647059,-0.007843,-0.007843,-0.007843,-1.960784,-1.960784,-1.960784,3
-2.823529,-2.823529,-5.647059,-0.007843,-0.007843,-0.007843,-1.960784,-1.960784,-1.960784,3
-2.823529,-2.823529,-5.647059,-0.007843,-0.007843,-0.007843,-1.960784,-1.960784,-1.960784,3
-2.823529,-2.823529,-5.647059,-0.007843,-0.007843,-0.007843,-1.960784,-1.960784,-1.960784,3
-2.823529,-2.823529,-5.647059,-0.007843,-0.007843,-0.007843,-1.960784,-1.960784,-1.960784,3
-2.823529,-2.823529,-5.647059,-0.007843,-0.007843,-0.007843,-1.960784,-1.960784,-1.960784,3
-2.823529,-2.823529,-5.647059,-0.007843,-0.007843,-0.007843,-1.960784,-1.960784,-1.960784,3
-2.823529,-2.823529,-5.647059,-0.007843,-0.007843,0.007843,-1.960784,-1.960784,-1.960784,3
-2.823529,-2.823529,-5.647059,-0.007843,-0.007843,-0.007843,-1.960784,-1.960784,-1.960784,3
-2.823529,-2.823529,-5.647059,-0.007843,-0.007843,-0.007843,-1.960784,-1.960784,-1.960784,3
-2.823529,-2.823529,-5.647059,-0.007843,-0.007843,-0.007843,-1.960784,-1.960784,-1.960784,3
-2.823529,-2.823529,-5.647059,-0.007843,-0.007843,-0.007843,-1.960784,-1.960784,-1.960784,3
-2.823529,-2.823529,-5.647059,-0.007843,-0.007843,-0.007843,-1.960784,-1.960784,-1.960784,3
-2.823529,-2.823529,-5.647059,-0.007843,-0.007843,-0.007843,-1.960784,-1.960784,-1.960784,3
-2.823529,-2.823529,-5.647059,-0.007843,-0.007843,-0.007843,-1.960784,-1.960784,-1.960784,3
-2.823529,-2.823529,-5.647059,-0.007843,-0.007843,-0.007843,-1.960784,-1.960784,-1.960784,3
-2.823529,-2.823529,-5.647059,-0.007843,-0.007843,-0.007843,-1.960784,-1.960784,-1.960784,3
-2.823529,-2.823529,-5.647059,-0.007843,-0.007843,-0.007843,-1.960784,-1.960784,-1.960784,3
-2.823529,-2.823529,-5.647059,-0.007843,-0.007843,0.007843,-1.960784,-1.960784,-1.960784,3
-2.823529,-2.823529,-5.647059,-0.007843,-0.007843,-0.007843,-1.960784,-1.960784,-1.960784,3
-2.823529,-2.823529,-5.647059,-0.007843,-0.007843,-0.007843,-1.960784,-1.960784,-1.960784,3
-2.823529,-2.823529,-5.647059,-0.007843,-0.007843,-0.023529,-1.960784,-1.960784,-1.960784,3
-2.823529,-2.823529,-5.647059,-0.007843,-0.007843,-0.007843,-1.960784,-1.960784,-1.960784,3
-2.823529,-2.823529,-5.647059,-0.007843,-0.007843,0.007843,-1.960784,-1.960784,-1.960784,3
-2.823529,-2.823529,-5.647059,-0.007843,-0.007843,-0.007843,-1.960784,-1.960784,-1.960784,3
-2.823529,-2.823529,-5.647059,-0.007843,-0.007843,-0.007843,-1.960784,-1.960784,-1.960784,3
-2.823529,-2.823529,-5.647059,-0.007843,-0.007843,-0.007843,-1.960784,-1.960784,-1.960784,3
-2.823529,-2.823529,-5.647059,-0.007843,-0.007843,-0.007843,-1.960784,-1.960784,-1.960784,3
-2.823529,-2.823529,-5.647059,-0.007843,-0.007843,-0.007843,-1.960784,-1.960784,-1.960784,3
-2.823529,-2.823529,-5.647059,-0.007843,-0.007843,0.007843,-1.960784,-1.960784,-1.960784,3
-2.823529,-2.823529,-5.647059,-0.007843,-0.007843,-0.007843,-1.960784,-1.960784,-1.960784,3
-2.823529,-2.823529,-5.647059,-0.007843,-0.007843,-0.007843,-1.960784,-1.960784,-1.960784,3
-2.823529,-2.823529,-5.647059,-0.007843,-0.007843,-0.007843,-1.960784,-1.960784,-1.960784,3
-2.823529,-2.823529,-5.647059,-0.007843,-0.007843,-0.007843,-1.960784,-1.960784,-1.960784,3
-2.823529,-2.823529,-5.647059,-0.007843,-0.007843,-0.007843,-1.960784,-1.960784,-1.960784,3
-2.823529,-2.823529,-5.647059,-0.007843,-0.007843,-0.007843,-1.960784,-1.960784,-1.960784,3
-2.823529,-2.823529,-5.647059,-0.007843,-0.007843,-0.007843,-1.960784,-1.960784,-1.960784,3
-2.823529,-2.823529,-5.647059,-0.007843,-0.007843,-0.007843,-1.960784,-1.960784,-1.960784,3
-2.823529,-2.823529,-5.647059,-0.007843,-0.007843,-0.007843,-1.960784,-1.960784,-1.960784,3
-2.823529,-2.823529,-5.647059,-0.007843,-0.007843,-0.007843,-1.960784,-1.960784,-1.960784,3
-2.823529,-2.823529,-5.647059,-0.007843,-0.007843,-0.007843,-1.960784,-1.960784,-1.960784,3
-2.823529,-2.823529,-5.647059,-0.007843,-0.007843,-0.023529,-1.960784,-1.960784,-1.960784,3
-2.823529,-2.823529,-5.647059,-0.007843,-0.007843,-0.007843,-1.960784,-1.960784,-1.960784,3
-2.823529,-2.823529,-5.647059,-0.007843,-0.007843,0.007843,-1.960784,-1.960784,-1.960784,3
-2.823529,-2.823529,-5.647059,-0.007843,-0.007843,-0.007843,-1.960784,-1.960784,-1.960784,3
-2.823529,-2.823529,-5.647059,-0.007843,-0.007843,-0.007843,-1.960784,-1.960784,-1.960784,3
-2.823529,-2.823529,-5.647059,-0.007843,-0.007843,-0.007843,-1.960784,-1.960784,-1.960784,3
-2.823529,-2.823529,-5.647059,-0.007843,-0.007843,-0.007843,-1.960784,-1.960784,-1.960784,3
-2.823529,-2.823529,-5.647059,-0.007843,-0.007843,-0.007843,-1.960784,-1.960784,-1.960784,3
-2.823529,-2.823529,-5.647059,-0.007843,-0.007843,-0.007843,-1.960784,-1.960784,-1.960784,3
-2.823529,-2.823529,-5.647059,-0.007843,-0.007843,-0.007843,-1.960784,-1.960784,-1.960784,3
-2.823529,-2.823529,-5.647059,-0.007843,-0.007843,-0.007843,-1.960784,-1.960784,-1.960784,3
-2.823529,-2.823529,-5.647059,-0.007843,-0.007843,-0.007843,-1.960784,-1.960784,-1.960784,3
-2.823529,-2.823529,-5.647059,-0.007843,-0.007843,-0.007843,-1.960784,-1.960784,-1.960784,3
-2.823529,-2.823529,-5.647059,-0.007843,-0.007843,-0.007843,-1.960784,-1.960784,-1.960784,3
-2.823529,-2.823529,-5.647059,-0.007843,-0.007843,-0.007843,-1.960784,-1.960784,-1.960784,3
-2.823529,-2.823529,-5.647059,-0.007843,-0.007843,-0.007843,-1.960784,-1.960784,-1.960784,3
-2.823529,-2.823529,-5.647059,-0.007843,-0.007843,-0.007843,-1.960784,-1.960784,-1.960784,3
-2.823529,-2.823529,-5.647059,-0.007843,-0.007843,-0.007843,-1.960784,-1.960784,-1.960784,3
-2.823529,-2.823529,-5.647059,-0.007843,-0.007843,-0.007843,-1.960784,-1.960784,-1.960784,3
-2.823529,-2.823529,-5.647059,-0.007843,-0.007843,-0.007843,-1.960784,-1.960784,-1.960784,3
-2.823529,-2.823529,-5.647059,-0.007843,-0.007843,-0.007843,-1.960784,-1.960784,-1.960784,3
-2.823529,-2.823529,-5.647059,-0.007843,-0.007843,-0.007843,-1.960784,-1.960784,-1.960784,3
-2.823529,-2.823529,-5.647059,-0.007843,-0.007843,-0.007843,-1.960784,-1.960784,-1.960784,3
-2.823529,-2.823529,-5.647059,-0.007843,-0.007843,-0.007843,-1.960784,-1.960784,-1.960784,3
-2.823529,-2.823529,-5.647059,-0.007843,-0.007843,-0.007843,-1.960784,-1.960784,-1.960784,3
-2.823529,-2.823529,-5.647059,-0.007843,-0.007843,-0.007843,-1.960784,-1.960784,-1.960784,3
-2.823529,-2.823529,-5.647059,-0.007843,-0.007843,-0.007843,-1.960784,-1.960784,-1.960784,3
-2.823529,-2.823529,-5.647059,-0.007843,-0.007843,-0.007843,-1.960784,-1.960784,-1.960784,3
-2.823529,-2.823529,-5.647059,-0.007843,-0.007843,-0.007843,-1.960784,-1.960784,-1.960784,3
-2.823529,-2.823529,-5.647059,-0.007843,-0.007843,-0.007843,-1.960784,-1.960784,-1.960784,3
-2.823529,-2.823529,-5.647059,-0.007843,-0.007843,0.007843,-1.960784,-1.960784,-1.960784,3
-2.823529,-2.823529,-5.647059,-0.007843,-0.007843,-0.007843,-1.960784,-1.960784,-1.960784,3
-2.823529,-2.823529,-5.647059,-0.007843,-0.007843,-0.007843,-1.960784,-1.960784,-1.960784,3
-2.823529,-2.823529,-5.647059,-0.007843,-0.007843,-0.007843,-1.960784,-1.960784,-1.960784,3
-2.823529,-2.823529,-5.647059,-0.007843,-0.007843,-0.007843,-1.960784,-1.960784,-1.960784,3
-2.823529,-2.823529,-5.647059,-0.007843,-0.007843,-0.007843,-1.960784,-1.960784,-1.960784,3
-2.823529,-2.823529,-5.647059,-0.007843,-0.007843,-0.007843,-1.960784,-1.960784,-1.960784,3
-2.823529,-2.823529,-5.647059,-0.007843,-0.007843,-0.007843,-1.960784,-1.960784,-1.960784,3
-2.823529,-2.823529,-5.647059,-0.007843,-0.007843,-0.007843,-1.960784,-1.960784,-1.960784,3
-2.823529,-2.823529,-5.647059,-0.007843,-0.007843,-0.007843,-1.960784,-1.960784,-1.960784,3
-2.823529,-2.823529,-5.647059,-0.007843,-0.007843,-0.007843,-1.960784,-1.960784,-1.960784,3
-2.823529,-2.823529,-5.647059,-0.007843,-0.007843,-0.007843,-1.960784,-1.960784,-1.960784,3
-2.823529,-2.823529,-5.647059,-0.007843,-0.007843,-0.007843,-1.960784,-1.960784,-1.960784,3
-2.823529,-2.823529,-5.647059,-0.007843,-0.007843,-0.007843,-1.960784,-1.960784,-1.960784,3
-2.823529,-2.823529,-5.647059,-0.007843,-0.007843,-0.007843,-1.960784,-1.960784,-1.960784,3
-2.823529,-2.823529,-5.647059,-0.007843,-0.007843,-0.007843,-1.960784,-1.960784,-1.960784,3
-2.823529,-2.823529,-5.647059,-0.007843,-0.007843,-0.007843,-1.960784,-1.960784,-1.960784,3
-2.823529,-2.823529,-5.647059,-0.007843,-0.007843,0.007843,-1.960784,-1.960784,-1.960784,3
-2.823529,-2.823529,-5.647059,-0.007843,-0.007843,-0.007843,-1.960784,-1.960784,-1.960784,3
-2.823529,-2.823529,-5.647059,-0.007843,-0.007843,-0.007843,-1.960784,-1.960784,-1.960784,3
-2.823529,-2.823529,-5.647059,-0.007843,-0.007843,-0.007843,-1.960784,-1.960784,-1.960784,3
-2.823529,-2.823529,-5.647059,-0.007843,-0.007843,-0.007843,-1.960784,-1.960784,-1.960784,3
-2.823529,-2.823529,-5.647059,-0.007843,-0.007843,-0.007843,-1.960784,-1.960784,-1.960784,3
-2.823529,-2.823529,-5.647059,-0.007843,-0.007843,-0.007843,-1.960784,-1.960784,-1.960784,3
-2.823529,-2.823529,-5.647059,-0.007843,-0.007843,-0.007843,-1.960784,-1.960784,-1.960784,3
-2.823529,-2.823529,-5.647059,-0.007843,-0.007843,-0.007843,-1.960784,-1.960784,-1.960784,3
-2.823529,-2.823529,-5.647059,-0.007843,-0.007843,0.007843,-1.960784,-1.960784,-1.960784,3
-2.823529,-2.823529,-5.647059,-0.007843,-0.007843,0.007843,-1.960784,-1.960784,-1.960784,3
-2.823529,-2.823529,-5.647059,-0.007843,-0.007843,-0.007843,-1.960784,-1.960784,-1.960784,3
-2.823529,-2.823529,-5.647059,-0.007843,-0.007843,-0.007843,-1.960784,-1.960784,-1.960784,3
-2.823529,-2.823529,-5.647059,-0.007843,-0.007843,-0.007843,-1.960784,-1.960784,-1.960784,3
-2.823529,-2.823529,-5.647059,-0.007843,-0.007843,-0.007843,-1.960784,-1.960784,-1.960784,3
-2.823529,-2.823529,-5.647059,-0.007843,-0.007843,-0.007843,-1.960784,-1.960784,-1.960784,3
-2.823529,-2.823529,-5.647059,-0.007843,-0.007843,-0.007843,-1.960784,-1.960784,-1.960784,3
-2.823529,-2.823529,-5.647059,-0.007843,-0.007843,-0.007843,-1.960784,-1.960784,-1.960784,3
-2.823529,-2.823529,-5.647059,-0.007843,-0.007843,-0.007843,-1.960784,-1.960784,-1.960784,3
-2.823529,-2.823529,-5.647059,-0.007843,-0.007843,-0.007843,-1.960784,-1.960784,-1.960784,3
-2.823529,-2.823529,-5.647059,-0.007843,-0.007843,-0.007843,-1.960784,-1.960784,-1.960784,3
-2.823529,-2.823529,-5.647059,-0.007843,-0.007843,-0.007843,-1.960784,-1.960784,-1.960784,3
-2.823529,-2.823529,-5.647059,-0.007843,-0.007843,-0.007843,-1.960784,-1.960784,-1.960784,3
-2.823529,-2.823529,-5.647059,-0.007843,-0.007843,-0.007843,-1.960784,-1.960784,-1.960784,3
-2.823529,-2.823529,-5.647059,-0.007843,-0.007843,-0.007843,-1.960784,-1.960784,-1.960784,3
-2.823529,-2.823529,-5.647059,-0.007843,-0.007843,-0.007843,-1.960784,-1.960784,-1.960784,3
-2.823529,-2.823529,-5.647059,-0.007843,-0.007843,-0.007843,-1.960784,-1.960784,-1.960784,3
-2.823529,-2.823529,-5.647059,-0.007843,-0.007843,-0.007843,-1.960784,-1.960784,-1.960784,3
-2.823529,-2.823529,-5.647059,-0.007843,-0.007843,-0.007843,-1.960784,-1.960784,-1.960784,3
-2.823529,-2.823529,-5.647059,-0.007843,-0.007843,-0.007843,-1.960784,-1.960784,-1.960784,3
-2.823529,-2.823529,-5.647059,-0.007843,-0.007843,-0.007843,-1.960784,-1.960784,-1.960784,3
-2.823529,-2.823529,-5.647059,-0.007843,-0.007843,-0.007843,-1.960784,-1.960784,-1.960784,3
-2.823529,-2.823529,-5.647059,-0.007843,-0.007843,-0.007843,-1.960784,-1.960784,-1.960784,3
-2.823529,-2.823529,-5.647059,-0.007843,-0.007843,-0.007843,-1.960784,-1.960784,-1.960784,3
-2.823529,-2.823529,-5.647059,-0.007843,-0.007843,-0.007843,-1.960784,-1.960784,-1.960784,3
-2.823529,-2.823529,-5.647059,-0.007843,-0.007843,-0.007843,-1.960784,-1.960784,-1.960784,3
-2.823529,-2.823529,-5.647059,-0.007843,-0.007843,-0.007843,-1.960784,-1.960784,-1.960784,3
-2.823529,-2.823529,-5.647059,-0.007843,-0.007843,-0.007843,-1.960784,-1.960784,-1.960784,3
-2.823529,-2.823529,-5.647059,-0.007843,-0.007843,0.007843,-1.960784,-1.960784,-1.960784,3
-2.823529,-2.823529,-5.647059,-0.007843,-0.007843,-0.007843,-1.960784,-1.960784,-1.960784,3
-2.823529,-2.823529,-5.647059,-0.007843,-0.007843,-0.007843,-1.960784,-1.960784,-1.960784,3
-2.823529,-2.823529,-5.647059,-0.007843,-0.007843,-0.007843,-1.960784,-1.960784,-1.960784,3
-2.823529,-2.823529,-5.647059,-0.007843,-0.007843,-0.007843,-1.960784,-1.960784,-1.960784,3
-2.823529,-2.823529,-5.647059,-0.007843,-0.007843,-0.007843,-1.960784,-1.960784,-1.960784,3
-2.823529,-2.823529,-5.647059,-0.007843,-0.007843,-0.007843,-1.960784,-1.960784,-1.960784,3
-2.823529,-2.823529,-5.647059,-0.007843,-0.007843,-0.007843,-1.960784,-1.960784,-1.960784,3
-2.823529,-2.823529,-5.647059,-0.007843,-0.007843,-0.007843,-1.960784,-1.960784,-1.960784,3
-2.823529,-2.823529,-5.647059,-0.007843,-0.007843,-0.007843,-1.960784,-1.960784,-1.960784,3
-2.823529,-2.823529,-5.647059,-0.007843,-0.007843,-0.007843,-1.960784,-1.960784,-1.960784,3
-2.823529,-2.823529,-5.647059,-0.007843,-0.007843,-0.007843,-1.960784,-1.960784,-1.960784,3
-2.823529,-2.823529,-5.647059,-0.007843,-0.007843,-0.007843,-1.960784,-1.960784,-1.960784,3
-2.823529,-2.823529,-5.647059,-0.007843,-0.007843,-0.007843,-1.960784,-1.960784,-1.960784,3
-2.823529,-2.823529,-5.647059,-0.007843,-0.007843,-0.007843,-1.960784,-1.960784,-1.960784,3
-2.823529,-2.823529,-5.647059,-0.007843,-0.007843,-0.007843,-1.960784,-1.960784,-1.960784,3
-2.823529,-2.823529,-5.647059,-0.007843,-0.007843,-0.007843,-1.960784,-1.960784,-1.960784,3
-2.823529,-2.823529,-5.647059,-0.007843,-0.007843,-0.007843,-1.960784,-1.960784,-1.960784,3
-2.823529,-2.823529,-5.647059,-0.007843,-0.007843,-0.007843,-1.960784,-1.960784,-1.960784,3
-2.823529,-2.823529,-5.647059,-0.007843,-0.007843,-0.007843,-1.960784,-1.960784,-1.960784,3
-2.823529,-2.823529,-5.647059,-0.007843,-0.007843,-0.007843,-1.960784,-1.960784,-1.960784,3
-2.823529,-2.823529,-5.647059,-0.007843,-0.007843,-0.007843,-1.960784,-1.960784,-1.960784,3
-2.823529,-2.823529,-5.647059,-0.007843,-0.007843,-0.007843,-1.960784,-1.960784,-1.960784,3
-2.823529,-2.823529,-5.647059,-0.007843,-0.007843,-0.007843,-1.960784,-1.960784,-1.960784,3
-2.823529,-2.823529,-5.647059,-0.007843,-0.007843,-0.023529,-1.960784,-1.960784,-1.960784,3
-2.823529,-2.823529,-5.647059,-0.007843,-0.007843,-0.007843,-1.960784,-1.960784,-1.960784,3
-2.823529,-2.823529,-5.647059,-0.007843,-0.007843,-0.007843,-1.960784,-1.960784,-1.960784,3
-2.823529,-2.823529,-5.647059,-0.007843,-0.007843,-0.007843,-1.960784,-1.960784,-1.960784,3
-2.823529,-2.823529,-5.647059,-0.007843,-0.007843,-0.007843,-1.960784,-1.960784,-1.960784,3
-2.823529,-2.823529,-5.647059,-0.007843,-0.007843,-0.007843,-1.960784,-1.960784,-1.960784,3
-2.823529,-2.823529,-5.647059,-0.007843,-0.007843,-0.007843,-1.960784,-1.960784,-1.960784,3
-2.823529,-2.823529,-5.647059,-0.007843,-0.007843,-0.007843,-1.960784,-1.960784,-1.960784,3
-2.823529,-2.823529,-5.647059,-0.007843,-0.007843,-0.007843,-1.960784,-1.960784,-1.960784,3
-2.823529,-2.823529,-5.647059,-0.007843,-0.007843,-0.007843,-1.960784,-1.960784,-1.960784,3
-2.823529,-2.823529,-5.647059,-0.007843,-0.007843,-0.007843,-1.960784,-1.960784,-1.960784,3
-2.823529,-2.823529,-5.647059,-0.007843,-0.007843,-0.007843,-1.960784,-1.960784,-1.960784,3
-2.823529,-2.823529,-5.647059,-0.007843,-0.007843,-0.007843,-1.960784,-1.960784,-1.960784,3
-2.823529,-2.823529,-5.647059,-0.007843,-0.007843,-0.007843,-1.960784,-1.960784,-1.960784,3
-2.823529,-2.823529,-5.647059,-0.007843,-0.007843,-0.007843,-1.960784,-1.960784,-1.960784,3
-2.823529,-2.823529,-5.647059,-0.007843,-0.007843,-0.007843,-1.960784,-1.960784,-1.960784,3
-2.823529,-2.823529,-5.647059,-0.007843,-0.007843,-0.007843,-1.960784,-1.960784,-1.960784,3
-2.823529,-2.823529,-5.647059,-0.007843,-0.007843,-0.007843,-1.960784,-1.960784,-1.960784,3
-2.823529,-2.823529,-5.647059,-0.007843,-0.007843,-0.007843,-1.960784,-1.960784,-1.960784,3
0,-2.823529,-5.647059,-0.007843,-0.007843,-0.007843,-1.960784,-1.960784,-1.960784,3
0,-2.823529,-5.647059,-0.007843,-0.007843,-0.007843,-1.960784,-1.960784,-1.960784,3
0,-2.823529,-5.647059,-0.007843,-0.007843,0.007843,-1.960784,-1.960784,-1.960784,3
0,-2.823529,-5.647059,-0.007843,-0.007843,-0.007843,-1.960784,-1.960784,-1.960784,3
0,-2.823529,-5.647059,-0.007843,-0.007843,-0.007843,-1.960784,-1.960784,-1.960784,3
0,-2.823529,-5.647059,-0.007843,-0.007843,-0.007843,-1.960784,-1.960784,-1.960784,3
0,-2.823529,-5.647059,-0.007843,-0.007843,-0.007843,-1.960784,-1.960784,-1.960784,3
0,-2.823529,-5.647059,-0.007843,-0.007843,-0.007843,-1.960784,-1.960784,-1.960784,3
0,0,-5.647059,-0.007843,-0.007843,-0.007843,-1.960784,-1.960784,-1.960784,3
0,0,-5.647059,-0.007843,-0.007843,-0.007843,-1.960784,-1.960784,-1.960784,3
0,0,-5.647059,-0.007843,-0.007843,-0.007843,-1.960784,-1.960784,-1.960784,3
0,0,-5.647059,-0.007843,-0.007843,-0.007843,-1.960784,-1.960784,-1.960784,3
0,0,-5.647059,-0.007843,-0.007843,-0.007843,-1.960784,-1.960784,-1.960784,3
0,0,-5.647059,-0.007843,-0.007843,-0.007843,-1.960784,-1.960784,-1.960784,3
0,0,-5.647059,-0.007843,-0.007843,-0.007843,-1.960784,-1.960784,-1.960784,3
0,0,-5.647059,-0.007843,-0.007843,-0.007843,-1.960784,-1.960784,-1.960784,3
0,0,-5.647059,-0.007843,-0.007843,-0.007843,-1.960784,-1.960784,-1.960784,3
0,0,-5.647059,-0.007843,-0.007843,-0.007843,-1.960784,-1.960784,-1.960784,3
0,0,-5.647059,-0.007843,-0.007843,-0.007843,-1.960784,-1.960784,-1.960784,3
0,0,-5.647059,-0.007843,-0.007843,-0.007843,-1.960784,-1.960784,-1.960784,3
0,0,-5.647059,-0.007843,-0.007843,-0.007843,-1.960784,-1.960784,-1.960784,3
0,0,-5.647059,-0.007843,-0.007843,-0.007843,-1.960784,-1.960784,-1.960784,3
0,0,-5.647059,-0.007843,-0.007843,0.007843,-1.960784,-1.960784,-1.960784,3
0,0,-5.647059,-0.007843,-0.007843,-0.007843,-1.960784,-1.960784,-1.960784,3
0,0,-5.647059,-0.007843,-0.007843,-0.007843,-1.960784,-1.960784,-1.960784,3
0,0,-5.647059,-0.007843,-0.007843,-0.007843,-1.960784,-1.960784,-1.960784,3
0,0,-5.647059,-0.007843,-0.007843,-0.007843,-1.960784,-1.960784,-1.960784,3
0,0,-5.647059,-0.007843,-0.007843,-0.007843,-1.960784,-1.960784,-1.960784,3
0,0,-5.647059,-0.007843,-0.007843,-0.007843,-1.960784,-1.960784,-1.960784,3
0,0,-5.647059,-0.007843,-0.007843,-0.007843,-1.960784,-1.960784,-1.960784,3
0,0,-5.647059,-0.007843,-0.007843,-0.007843,-1.960784,-1.960784,-1.960784,3
0,0,-5.647059,-0.007843,-0.007843,-0.007843,-1.960784,-1.960784,-1.960784,3
0,0,-5.647059,-0.007843,-0.007843,-0.007843,-1.960784,-1.960784,-1.960784,3
0,0,-5.647059,-0.007843,-0.007843,0.007843,-1.960784,-1.960784,-1.960784,3
0,0,-5.647059,-0.007843,-0.007843,-0.007843,-1.960784,-1.960784,-1.960784,3
0,0,-5.647059,-0.007843,-0.007843,-0.007843,-1.960784,-1.960784,-1.960784,3
0,0,-5.647059,-0.007843,-0.007843,-0.007843,-1.960784,-1.960784,-1.960784,3
0,0,-5.647059,-0.007843,-0.007843,-0.007843,-1.960784,-1.960784,-1.960784,3
0,0,-5.647059,-0.007843,-0.007843,-0.007843,-1.960784,-1.960784,-1.960784,3
0,0,-5.647059,-0.007843,-0.007843,-0.007843,-1.960784,-1.960784,-1.960784,3
-2.823529,0,-5.647059,-0.007843,-0.007843,-0.007843,-1.960784,-1.960784,-1.960784,3
-2.823529,0,-5.647059,-0.007843,-0.007843,-0.007843,-1.960784,-1.960784,-1.960784,3
-2.823529,0,-5.647059,-0.007843,-0.007843,-0.007843,-1.960784,-1.960784,-1.960784,3
-2.823529,0,-5.647059,-0.007843,-0.007843,-0.007843,-1.960784,-1.960784,-1.960784,3
-2.823529,0,-5.647059,-0.007843,-0.007843,-0.007843,-1.960784,-1.960784,-1.960784,3
-2.823529,0,-5.647059,-0.007843,-0.007843,-0.007843,-1.960784,-1.960784,-1.960784,3
-2.823529,0,-5.647059,-0.007843,-0.007843,-0.007843,-1.960784,-1.960784,-1.960784,3
-2.823529,0,-5.647059,-0.007843,-0.007843,-0.007843,-1.960784,-1.960784,-1.960784,3
0,0,-5.647059,-0.007843,-0.007843,-0.007843,-1.960784,-1.960784,-1.960784,3
-2.823529,0,-5.647059,-0.007843,-0.007843,-0.007843,-1.960784,-1.960784,-1.960784,3
0,0,-5.647059,-0.007843,-0.007843,-0.007843,-1.960784,-1.960784,-1.960784,3
-2.823529,0,-5.647059,-0.007843,-0.007843,0.007843,-1.960784,-1.960784,-1.960784,3
0,0,-5.647059,-0.007843,-0.007843,-0.007843,-1.960784,-1.960784,-1.960784,3
0,0,-5.647059,-0.007843,-0.007843,-0.007843,-1.960784,-1.960784,-1.960784,3
0,0,-5.647059,-0.007843,-0.007843,-0.007843,-1.960784,-1.960784,-1.960784,3
-2.823529,0,-5.647059,-0.007843,-0.007843,-0.007843,-1.960784,-1.960784,-1.960784,3
-2.823529,0,-5.647059,-0.007843,-0.007843,-0.007843,-1.960784,-1.960784,-1.960784,3
-2.823529,0,-5.647059,-0.007843,-0.007843,-0.007843,-1.960784,-1.960784,-1.960784,3
-2.823529,0,-5.647059,-0.007843,-0.007843,-0.007843,-1.960784,-1.960784,-1.960784,3
-2.823529,0,-5.647059,-0.007843,-0.007843,-0.007843,-1.960784,-1.960784,-1.960784,3
-2.823529,0,-5.647059,-0.007843,-0.007843,-0.007843,-1.960784,-1.960784,-1.960784,3
-2.823529,0,-5.647059,-0.007843,-0.007843,-0.007843,-1.960784,-1.960784,-1.960784,3
0,0,-5.647059,-0.007843,-0.007843,-0.007843,-1.960784,-1.960784,-1.960784,3
0,0,-5.647059,-0.007843,-0.007843,-0.007843,-1.960784,-1.960784,-1.960784,3
0,0,-5.647059,-0.007843,-0.007843,-0.007843,-1.960784,-1.960784,-1.960784,3
0,-2.823529,-5.647059,-0.007843,-0.007843,-0.007843,-1.960784,-1.960784,-1.960784,3
0,-2.823529,-5.647059,-0.007843,-0.007843,-0.007843,-1.960784,-1.960784,-1.960784,3
0,-2.823529,-5.647059,-0.007843,-0.007843,-0.007843,-1.960784,-1.960784,-1.960784,3
0,-2.823529,-5.647059,-0.007843,-0.007843,-0.007843,-1.960784,-1.960784,-1.960784,3
0,-2.823529,-5.647059,-0.007843,-0.007843,-0.007843,-1.960784,-1.960784,-1.960784,3
0,-2.823529,-5.647059,-0.007843,-0.007843,-0.007843,-1.960784,-1.960784,-1.960784,3
0,-2.823529,-5.647059,-0.007843,-0.007843,-0.007843,-1.960784,-1.960784,-1.960784,3
0,-2.823529,-5.647059,-0.007843,-0.007843,-0.007843,-1.960784,-1.960784,-1.960784,3
0,-2.823529,-5.647059,-0.007843,-0.007843,-0.007843,-1.960784,-1.960784,-1.960784,3
0,-2.823529,-5.647059,-0.007843,-0.007843,-0.007843,-1.960784,-1.960784,-1.960784,3
0,-2.823529,-5.647059,-0.007843,-0.007843,-0.007843,-1.960784,-1.960784,-1.960784,3
0,-2.823529,-5.647059,-0.007843,-0.007843,-0.007843,-1.960784,-1.960784,-1.960784,3
0,-2.823529,-5.647059,-0.007843,-0.007843,-0.007843,-1.960784,-1.960784,-1.960784,3
0,0,-5.647059,-0.007843,-0.007843,0.007843,-1.960784,-1.960784,-1.960784,3
0,-2.823529,-5.647059,-0.007843,-0.007843,-0.007843,-1.960784,-1.960784,-1.960784,3
0,-2.823529,-5.647059,-0.007843,-0.007843,-0.007843,-1.960784,-1.960784,-1.960784,3
0,0,-5.647059,-0.007843,-0.007843,-0.007843,-1.960784,-1.960784,-1.960784,3
0,0,-5.647059,-0.007843,-0.007843,-0.007843,-1.960784,-1.960784,-1.960784,3
0,0,-5.647059,-0.007843,-0.007843,-0.007843,-1.960784,-1.960784,-1.960784,3
0,0,-5.647059,-0.007843,-0.007843,-0.007843,-1.960784,-1.960784,-1.960784,3
0,0,-5.647059,-0.007843,-0.007843,-0.007843,-1.960784,-1.960784,-1.960784,3
0,-2.823529,-5.647059,-0.007843,-0.007843,-0.007843,-1.960784,-1.960784,-1.960784,3
0,-2.823529,-5.647059,-0.007843,-0.007843,-0.007843,-1.960784,-1.960784,-1.960784,3
0,-2.823529,-5.647059,-0.007843,-0.007843,-0.007843,-1.960784,-1.960784,-1.960784,3
0,-2.823529,-5.647059,-0.007843,-0.007843,-0.007843,-1.960784,-1.960784,-1.960784,3
0,-2.823529,-5.647059,-0.007843,-0.007843,-0.007843,-1.960784,-1.960784,-1.960784,3
0,-2.823529,-5.647059,-0.007843,-0.007843,-0.007843,-1.960784,-1.960784,-1.960784,3
0,-2.823529,-5.647059,-0.007843,-0.007843,-0.007843,-1.960784,-1.960784,-1.960784,3
0,-2.823529,-5.647059,-0.007843,-0.007843,-0.023529,-1.960784,-1.960784,-1.960784,3
0,-2.823529,-5.647059,-0.007843,-0.007843,-0.007843,-1.960784,-1.960784,-1.960784,3
0,-2.823529,-5.647059,-0.007843,-0.007843,-0.007843,-1.960784,-1.960784,-1.960784,3
0,-2.823529,-5.647059,-0.007843,-0.007843,0.007843,-1.960784,-1.960784,-1.960784,3
0,-2.823529,-5.647059,-0.007843,-0.007843,-0.007843,-1.960784,-1.960784,-1.960784,3
0,-2.823529,-5.647059,-0.007843,-0.007843,0.007843,-1.960784,-1.960784,-1.960784,3
0,-2.823529,-5.647059,-0.007843,-0.007843,-0.007843,-1.960784,-1.960784,-1.960784,3
0,-2.823529,-5.647059,-0.007843,-0.007843,-0.007843,-1.960784,-1.960784,-1.960784,3
0,-2.823529,-5.647059,-0.007843,-0.007843,-0.007843,-1.960784,-1.960784,-1.960784,3
0,-2.823529,-5.647059,-0.007843,-0.007843,-0.007843,-1.960784,-1.960784,-1.960784,3
0,-2.823529,-5.647059,-0.007843,-0.007843,-0.007843,-1.960784,-1.960784,-1.960784,3
0,-2.823529,-5.647059,-0.007843,-0.007843,-0.007843,-1.960784,-1.960784,-1.960784,3
0,-2.823529,-5.647059,-0.007843,-0.007843,-0.007843,-1.960784,-1.960784,-1.960784,3
0,-2.823529,-5.647059,-0.007843,-0.007843,-0.007843,-1.960784,-1.960784,-1.960784,3
0,-2.823529,-5.647059,-0.007843,-0.007843,-0.007843,-1.960784,-1.960784,-1.960784,3
0,-2.823529,-5.647059,-0.007843,-0.007843,-0.007843,-1.960784,-1.960784,-1.960784,3
0,-2.823529,-5.647059,-0.007843,-0.007843,-0.007843,-1.960784,-1.960784,-1.960784,3
0,-2.823529,-5.647059,-0.007843,-0.007843,0.007843,-1.960784,-1.960784,-1.960784,3
0,-2.823529,-5.647059,-0.007843,-0.007843,-0.007843,-1.960784,-1.960784,-1.960784,3
0,-2.823529,-5.647059,-0.007843,-0.007843,-0.007843,-1.960784,-1.960784,-1.960784,3
0,-2.823529,-5.647059,-0.007843,-0.007843,-0.007843,-1.960784,-1.960784,-1.960784,3
0,-2.823529,-5.647059,-0.007843,-0.007843,-0.007843,-1.960784,-1.960784,-1.960784,3
0,-2.823529,-5.647059,-0.007843,-0.007843,-0.007843,-1.960784,-1.960784,-1.960784,3
0,-2.823529,-5.647059,-0.007843,-0.007843,-0.007843,-1.960784,-1.960784,-1.960784,3
-2.823529,-2.823529,-5.647059,-0.023529,-0.023529,0.023529,-1.960784,-1.960784,-1.960784,3
-2.823529,-2.823529,-5.647059,-0.007843,-0.007843,0.007843,-1.960784,-1.960784,-1.960784,3
-2.823529,-2.823529,-5.647059,-0.007843,-0.007843,-0.007843,-1.960784,-1.960784,-1.960784,3
0,-2.823529,-5.647059,-0.007843,-0.007843,-0.007843,-1.960784,-1.960784,-1.960784,3
0,-2.823529,-5.647059,-0.007843,-0.007843,-0.007843,-1.960784,-1.960784,-1.960784,3
0,-2.823529,-5.647059,-0.007843,-0.007843,-0.007843,-1.960784,-1.960784,-1.960784,3
0,-2.823529,-5.647059,-0.007843,-0.007843,-0.007843,-1.960784,-1.960784,-1.960784,3
0,-2.823529,-5.647059,-0.007843,-0.007843,-0.039216,-1.960784,-1.960784,-1.960784,3
0,-2.823529,-5.647059,-0.007843,-0.007843,-0.007843,-1.960784,-1.960784,-1.960784,3
0,-2.823529,-5.647059,-0.007843,-0.007843,0.007843,-1.960784,-1.960784,-1.960784,3
0,-2.823529,-5.647059,-0.007843,-0.007843,0.007843,-1.960784,-1.960784,-1.960784,3
0,0,-5.647059,-0.007843,-0.007843,-0.007843,-1.960784,-1.960784,-1.960784,3
0,-2.823529,-5.647059,-0.007843,-0.007843,-0.007843,-1.960784,-1.960784,-1.960784,3
0,0,-5.647059,-0.007843,-0.007843,-0.007843,-1.960784,-1.960784,-1.960784,3
0,0,-5.647059,-0.007843,-0.007843,-0.007843,-1.960784,-1.960784,-1.960784,3
0,0,-5.647059,-0.007843,-0.007843,-0.007843,-1.960784,-1.960784,-1.960784,3
0,0,-5.647059,-0.007843,-0.007843,-0.007843,-1.960784,-1.960784,-1.960784,3
0,0,-5.647059,-0.007843,-0.007843,-0.007843,-1.960784,-1.960784,-1.960784,3
0,0,-5.647059,-0.007843,-0.007843,-0.007843,-1.960784,-1.960784,-1.960784,3
0,0,-5.647059,-0.023529,-0.023529,-0.007843,-1.960784,-1.960784,-1.960784,3
0,0,-5.647059,-0.007843,-0.007843,0.007843,-1.960784,-1.960784,-1.960784,3
0,0,-5.647059,-0.007843,-0.007843,-0.007843,-1.960784,-1.960784,-1.960784,3
0,0,-5.647059,-0.007843,-0.007843,-0.007843,-1.960784,-1.960784,-1.960784,3
0,0,-5.647059,-0.023529,-0.007843,-0.007843,-1.960784,-1.960784,-1.960784,3
0,0,-5.647059,-0.007843,-0.007843,-0.023529,-1.960784,-1.960784,-1.960784,3
0,0,-5.647059,-0.007843,-0.007843,-0.007843,-1.960784,-1.960784,-1.960784,3
0,0,-5.647059,-0.007843,-0.007843,-0.007843,-1.960784,-1.960784,-1.960784,3
0,-2.823529,-5.647059,-0.007843,-0.007843,0.039216,-1.960784,-1.960784,-1.960784,3
0,0,-5.647059,-0.007843,-0.007843,-0.007843,-1.960784,-1.960784,-1.960784,3
0,0,-5.647059,-0.007843,-0.007843,-0.007843,-1.960784,-1.960784,-1.960784,3
0,0,-5.647059,-0.007843,-0.007843,-0.007843,-1.960784,-1.960784,-1.960784,3
0,-2.823529,-5.647059,-0.007843,-0.007843,-0.007843,-1.960784,-1.960784,-1.960784,3
0,0,-5.647059,-0.007843,-0.023529,0.007843,-1.960784,-1.960784,-1.960784,3
0,0,-5.647059,-0.007843,-0.007843,-0.007843,-1.960784,-1.960784,-1.960784,3
0,0,-5.647059,-0.007843,-0.007843,-0.007843,-1.960784,-1.960784,-1.960784,3
0,0,-5.647059,-0.007843,-0.007843,0.007843,-1.960784,-1.960784,-1.960784,3
0,0,-5.647059,-0.007843,-0.007843,-0.007843,-1.960784,-1.960784,-1.960784,3
0,0,-5.647059,-0.007843,-0.007843,-0.007843,-1.960784,-1.960784,-1.960784,3
0,0,-5.647059,-0.007843,-0.007843,-0.007843,-1.960784,-1.960784,-1.960784,3
0,0,-5.647059,-0.007843,-0.007843,-0.007843,-1.960784,-1.960784,-1.960784,3
0,0,-5.647059,-0.007843,-0.007843,-0.007843,-1.960784,-1.960784,-1.960784,3
0,0,-5.647059,-0.007843,-0.007843,0.007843,-1.960784,-1.960784,-1.960784,3
0,0,-5.647059,-0.007843,-0.007843,-0.007843,-1.960784,-1.960784,-1.960784,3
0,0,-5.647059,-0.007843,-0.007843,-0.007843,-1.960784,-1.960784,-1.960784,3
0,0,-5.647059,-0.007843,-0.007843,-0.007843,-1.960784,-1.960784,-1.960784,3
0,-2.823529,-5.647059,-0.007843,-0.007843,0.039216,-1.960784,-1.960784,-1.960784,3
0,-2.823529,-5.647059,-0.007843,-0.023529,-0.007843,-1.960784,-1.960784,-1.960784,3
0,-2.823529,-5.647059,-0.007843,-0.007843,-0.007843,-1.960784,-1.960784,-1.960784,3
0,-2.823529,-5.647059,-0.007843,-0.007843,-0.007843,-1.960784,-1.960784,-1.960784,3
0,-2.823529,-5.647059,-0.007843,-0.007843,-0.007843,-1.960784,-1.960784,-1.960784,3
0,-2.823529,-5.647059,-0.007843,-0.007843,-0.007843,-1.960784,-1.960784,-1.960784,3
0,-2.823529,-5.647059,-0.023529,-0.023529,-0.023529,-1.960784,-1.960784,-1.960784,3
0,-2.823529,-5.647059,-0.007843,-0.007843,-0.023529,-1.960784,-1.960784,-1.960784,3
0,-2.823529,-5.647059,-0.007843,-0.007843,-0.007843,-1.960784,-1.960784,-1.960784,3
0,-2.823529,-5.647059,-0.007843,-0.007843,-0.007843,-1.960784,-1.960784,-1.960784,3
0,-2.823529,-5.647059,-0.007843,-0.007843,0.007843,-1.960784,-1.960784,-1.960784,3
0,-2.823529,-5.647059,-0.007843,-0.007843,-0.023529,-1.960784,-1.960784,-1.960784,3
0,-2.823529,-5.647059,-0.007843,-0.007843,-0.007843,-1.960784,-1.960784,-1.960784,3
0,-2.823529,-5.647059,-0.007843,-0.007843,-0.007843,-1.960784,-1.960784,-1.960784,3
0,-2.823529,-5.647059,-0.007843,-0.007843,0.007843,-1.960784,-1.960784,-1.960784,3
0,-2.823529,-5.647059,-0.007843,-0.007843,-0.007843,-1.960784,-1.960784,-1.960784,3
0,-2.823529,-5.647059,-0.007843,-0.007843,-0.007843,-1.960784,-1.960784,-1.960784,3
0,-2.823529,-5.647059,-0.007843,-0.007843,-0.007843,-1.960784,-1.960784,-1.960784,3
0,-2.823529,-5.647059,-0.007843,-0.007843,-0.007843,-1.960784,-1.960784,-1.960784,3
0,-2.823529,-5.647059,-0.007843,-0.007843,-0.007843,-1.960784,-1.960784,-1.960784,3
0,-2.823529,-5.647059,-0.007843,-0.007843,-0.007843,-1.960784,-1.960784,-1.960784,3
0,-2.823529,-5.647059,-0.007843,-0.007843,-0.007843,-1.960784,-1.960784,-1.960784,3
0,-2.823529,-5.647059,-0.007843,-0.007843,-0.007843,-1.960784,-1.960784,-1.960784,3
0,-2.823529,-5.647059,-0.007843,-0.007843,-0.007843,-1.960784,-1.960784,-1.960784,3
0,-2.823529,-5.647059,-0.007843,-0.007843,-0.007843,-1.960784,-1.960784,-1.960784,3
0,-2.823529,-5.647059,-0.007843,-0.007843,-0.007843,-1.960784,-1.960784,-1.960784,3
0,-2.823529,-5.647059,-0.007843,-0.007843,-0.007843,-1.960784,-1.960784,-1.960784,3
0,-2.823529,-5.647059,-0.007843,-0.007843,-0.007843,-1.960784,-1.960784,-1.960784,3
0,-2.823529,-5.647059,-0.007843,-0.007843,-0.007843,-1.960784,-1.960784,-1.960784,3
0,-2.823529,-5.647059,-0.007843,-0.007843,-0.007843,-1.960784,-1.960784,-1.960784,3
0,-2.823529,-5.647059,-0.007843,-0.007843,-0.007843,-1.960784,-1.960784,-1.960784,3
0,-2.823529,-5.647059,-0.007843,-0.007843,-0.007843,-1.960784,-1.960784,-1.960784,3
0,-2.823529,-5.647059,-0.007843,-0.007843,-0.007843,-1.960784,-1.960784,-1.960784,3
0,-2.823529,-5.647059,-0.007843,-0.007843,-0.007843,-1.960784,-1.960784,-1.960784,3
0,-2.823529,-5.647059,-0.007843,-0.007843,-0.007843,-1.960784,-1.960784,-1.960784,3
0,-2.823529,-5.647059,-0.007843,-0.007843,-0.007843,-1.960784,-1.960784,-1.960784,3
0,-2.823529,-5.647059,-0.007843,-0.007843,-0.007843,-1.960784,-1.960784,-1.960784,3
0,-2.823529,-5.647059,-0.007843,-0.007843,-0.007843,-1.960784,-1.960784,-1.960784,3
0,-2.823529,-5.647059,-0.007843,-0.007843,-0.007843,-1.960784,-1.960784,-1.960784,3
0,-2.823529,-5.647059,-0.007843,-0.007843,-0.007843,-1.960784,-1.960784,-1.960784,3
0,-2.823529,-5.647059,-0.007843,-0.007843,-0.007843,-1.960784,-1.960784,-1.960784,3
0,-2.823529,-5.647059,-0.007843,-0.007843,-0.007843,-1.960784,-1.960784,-1.960784,3
0,-2.823529,-5.647059,-0.007843,-0.007843,-0.007843,-1.960784,-1.960784,-1.960784,3
0,-2.823529,-5.647059,-0.007843,-0.007843,-0.007843,-1.960784,-1.960784,-1.960784,3
0,-2.823529,-5.647059,-0.007843,-0.007843,-0.007843,-1.960784,-1.960784,-1.960784,3
0,-2.823529,-5.647059,-0.007843,-0.007843,-0.007843,-1.960784,-1.960784,-1.960784,3
0,-2.823529,-5.647059,-0.007843,-0.007843,-0.007843,-1.960784,-1.960784,-1.960784,3
0,-2.823529,-5.647059,-0.007843,-0.007843,-0.007843,-1.960784,-1.960784,-1.960784,3
0,-2.823529,-5.647059,-0.007843,-0.007843,-0.007843,-1.960784,-1.960784,-1.960784,3
0,-2.823529,-5.647059,-0.007843,-0.007843,-0.007843,-1.960784,-1.960784,-1.960784,3
0,-2.823529,-5.647059,-0.007843,-0.007843,-0.007843,-1.960784,-1.960784,-1.960784,3
0,-2.823529,-5.647059,-0.007843,-0.007843,-0.007843,-1.960784,-1.960784,-1.960784,3
0,-2.823529,-5.647059,-0.007843,-0.007843,-0.007843,-1.960784,-1.960784,-1.960784,3
0,-2.823529,-5.647059,-0.007843,-0.007843,-0.007843,-1.960784,-1.960784,-1.960784,3
0,-2.823529,-5.647059,-0.007843,-0.007843,-0.007843,-1.960784,-1.960784,-1.960784,3
0,-2.823529,-5.647059,-0.007843,-0.007843,-0.007843,-1.960784,-1.960784,-1.960784,3
0,-2.823529,-5.647059,-0.007843,-0.007843,-0.007843,-1.960784,-1.960784,-1.960784,3
0,-2.823529,-5.647059,-0.007843,-0.007843,-0.007843,-1.960784,-1.960784,-1.960784,3
0,-2.823529,-5.647059,-0.007843,-0.007843,-0.007843,-1.960784,-1.960784,-1.960784,3
0,-2.823529,-5.647059,-0.007843,-0.007843,-0.007843,-1.960784,-1.960784,-1.960784,3
0,-2.823529,-5.647059,-0.007843,-0.007843,-0.007843,-1.960784,-1.960784,-1.960784,3
0,-2.823529,-5.647059,-0.007843,-0.007843,0.007843,-1.960784,-1.960784,-1.960784,3
0,-2.823529,-5.647059,-0.007843,-0.007843,-0.007843,-1.960784,-1.960784,-1.960784,3
0,-2.823529,-5.647059,-0.007843,-0.007843,-0.007843,-1.960784,-1.960784,-1.960784,3
0,-2.823529,-5.647059,-0.007843,-0.007843,-0.007843,-1.960784,-1.960784,-1.960784,3
0,-2.823529,-5.647059,-0.007843,-0.007843,-0.007843,-1.960784,-1.960784,-1.960784,3
0,-2.823529,-5.647059,-0.007843,-0.007843,0.007843,-1.960784,-1.960784,-1.960784,3
0,-2.823529,-5.647059,-0.007843,-0.007843,-0.007843,-1.960784,-1.960784,-1.960784,3
0,-2.823529,-5.647059,-0.007843,-0.007843,-0.007843,-1.960784,-1.960784,-1.960784,3
0,-2.823529,-5.647059,-0.007843,-0.007843,-0.007843,-1.960784,-1.960784,-1.960784,3
0,-2.823529,-5.647059,-0.007843,-0.007843,-0.007843,-1.960784,-1.960784,-1.960784,3
0,-2.823529,-5.647059,-0.007843,-0.007843,-0.007843,-1.960784,-1.960784,-1.960784,3
0,-2.823529,-5.647059,-0.007843,-0.007843,-0.007843,-1.960784,-1.960784,-1.960784,3
0,-2.823529,-5.647059,-0.007843,-0.007843,-0.007843,-1.960784,-1.960784,-1.960784,3
0,-2.823529,-5.647059,-0.007843,-0.007843,-0.007843,-1.960784,-1.960784,-1.960784,3
0,-2.823529,-5.647059,-0.007843,-0.007843,-0.007843,-1.960784,-1.960784,-1.960784,3
0,-2.823529,-5.647059,-0.007843,-0.007843,-0.007843,-1.960784,-1.960784,-1.960784,3
0,-2.823529,-5.647059,-0.007843,-0.007843,-0.007843,-1.960784,-1.960784,-1.960784,3
0,-2.823529,-5.647059,-0.007843,-0.007843,-0.007843,-1.960784,-1.960784,-1.960784,3
0,-2.823529,-5.647059,-0.007843,-0.007843,-0.007843,-1.960784,-1.960784,-1.960784,3
0,-2.823529,-5.647059,-0.007843,-0.007843,-0.007843,-1.960784,-1.960784,-1.960784,3
0,-2.823529,-5.647059,-0.007843,-0.007843,-0.007843,-1.960784,-1.960784,-1.960784,3
0,-2.823529,-5.647059,-0.007843,-0.007843,-0.007843,-1.960784,-1.960784,-1.960784,3
0,-2.823529,-5.647059,-0.007843,-0.007843,-0.007843,-1.960784,-1.960784,-1.960784,3
0,-2.823529,-5.647059,-0.007843,-0.007843,-0.007843,-1.960784,-1.960784,-1.960784,3
0,-2.823529,-5.647059,-0.007843,-0.007843,0.007843,-1.960784,-1.960784,-1.960784,3
0,-2.823529,-5.647059,-0.007843,-0.007843,-0.007843,-1.960784,-1.960784,-1.960784,3
0,-2.823529,-5.647059,-0.007843,-0.007843,-0.007843,-1.960784,-1.960784,-1.960784,3
0,-2.823529,-5.647059,-0.007843,-0.007843,0.007843,-1.960784,-1.960784,-1.960784,3
0,-2.823529,-5.647059,-0.007843,-0.007843,0.007843,-1.960784,-1.960784,-1.960784,3
0,-2.823529,-5.647059,-0.007843,-0.007843,-0.007843,-1.960784,-1.960784,-1.960784,3
0,-2.823529,-5.647059,-0.007843,-0.007843,-0.007843,-1.960784,-1.960784,-1.960784,3
0,-2.823529,-5.647059,-0.007843,-0.007843,-0.007843,-1.960784,-1.960784,-1.960784,3
0,-2.823529,-5.647059,-0.007843,-0.007843,-0.007843,-1.960784,-1.960784,-1.960784,3
0,-2.823529,-5.647059,-0.007843,-0.007843,-0.007843,-1.960784,-1.960784,-1.960784,3
0,-2.823529,-5.647059,-0.007843,-0.007843,0.007843,-1.960784,-1.960784,-1.960784,3
0,-2.823529,-5.647059,-0.007843,-0.007843,-0.007843,-1.960784,-1.960784,-1.960784,3
0,-2.823529,-5.647059,-0.007843,-0.007843,-0.007843,-1.960784,-1.960784,-1.960784,3
0,-2.823529,-5.647059,-0.007843,-0.007843,-0.007843,-1.960784,-1.960784,-1.960784,3
0,-2.823529,-5.647059,-0.007843,-0.007843,-0.007843,-1.960784,-1.960784,-1.960784,3
0,-2.823529,-5.647059,-0.007843,-0.007843,-0.007843,-1.960784,-1.960784,-1.960784,3
0,-2.823529,-5.647059,-0.007843,-0.007843,-0.007843,-1.960784,-1.960784,-1.960784,3
0,-2.823529,-5.647059,-0.007843,-0.007843,-0.007843,-1.960784,-1.960784,-1.960784,3
0,-2.823529,-5.647059,-0.007843,-0.007843,-0.007843,-1.960784,-1.960784,-1.960784,3
0,-2.823529,-5.647059,-0.007843,-0.007843,-0.007843,-1.960784,-1.960784,-1.960784,3
0,-2.823529,-5.647059,-0.007843,-0.007843,-0.007843,-1.960784,-1.960784,-1.960784,3
0,-2.823529,-5.647059,-0.007843,-0.007843,-0.007843,-1.960784,-1.960784,-1.960784,3
0,-2.823529,-5.647059,-0.007843,-0.007843,-0.007843,-1.960784,-1.960784,-1.960784,3
0,-2.823529,-5.647059,-0.007843,-0.007843,-0.007843,-1.960784,-1.960784,-1.960784,3
0,-2.823529,-5.647059,-0.007843,-0.007843,-0.007843,-1.960784,-1.960784,-1.960784,3
0,-2.823529,-5.647059,-0.007843,-0.007843,-0.007843,-1.960784,-1.960784,-1.960784,3
0,-2.823529,-5.647059,-0.007843,-0.007843,-0.007843,-1.960784,-1.960784,-1.960784,3
0,-2.823529,-5.647059,-0.007843,-0.007843,-0.007843,-1.960784,-1.960784,-1.960784,3
0,-2.823529,-5.647059,-0.007843,-0.007843,-0.007843,-1.960784,-1.960784,-1.960784,3
0,-2.823529,-5.647059,-0.007843,-0.007843,-0.007843,-1.960784,-1.960784,-1.960784,3
0,-2.823529,-5.647059,-0.007843,-0.007843,-0.007843,-1.960784,-1.960784,-1.960784,3
0,-2.823529,-5.647059,-0.007843,-0.007843,-0.007843,-1.960784,-1.960784,-1.960784,3
0,-2.823529,-5.647059,-0.007843,-0.007843,-0.007843,-1.960784,-1.960784,-1.960784,3
0,-2.823529,-5.647059,-0.007843,-0.007843,-0.007843,-1.960784,-1.960784,-1.960784,3
0,-2.823529,-5.647059,-0.007843,-0.007843,-0.007843,-1.960784,-1.960784,-1.960784,3
0,-2.823529,-5.647059,-0.007843,-0.007843,-0.007843,-1.960784,-1.960784,-1.960784,3
0,-2.823529,-5.647059,-0.007843,-0.007843,-0.007843,-1.960784,-1.960784,-1.960784,3
0,-2.823529,-5.647059,-0.007843,-0.007843,-0.007843,-1.960784,-1.960784,-1.960784,3
0,-2.823529,-5.647059,-0.007843,-0.007843,0.007843,-1.960784,-1.960784,-1.960784,3
0,-2.823529,-5.647059,-0.007843,-0.007843,-0.007843,-1.960784,-1.960784,-1.960784,3
0,-2.823529,-5.647059,-0.007843,-0.007843,-0.007843,-1.960784,-1.960784,-1.960784,3
0,-2.823529,-5.647059,-0.007843,-0.007843,0.007843,-1.960784,-1.960784,-1.960784,3
0,-2.823529,-5.647059,-0.007843,-0.007843,-0.007843,-1.960784,-1.960784,-1.960784,3
0,-2.823529,-5.647059,-0.007843,-0.007843,-0.007843,-1.960784,-1.960784,-1.960784,3
0,-2.823529,-5.647059,-0.007843,-0.007843,-0.007843,-1.960784,-1.960784,-1.960784,3
0,-2.823529,-5.647059,-0.007843,-0.007843,-0.007843,-1.960784,-1.960784,-1.960784,3
0,-2.823529,-5.647059,-0.007843,-0.007843,-0.007843,-1.960784,-1.960784,-1.960784,3
0,-2.823529,-5.647059,-0.007843,-0.007843,-0.007843,-1.960784,-1.960784,-1.960784,3
0,-2.823529,-5.647059,-0.007843,-0.007843,-0.007843,-1.960784,-1.960784,-1.960784,3
0,-2.823529,-5.647059,-0.007843,-0.007843,-0.007843,-1.960784,-1.960784,-1.960784,3
0,-2.823529,-5.647059,-0.007843,-0.007843,-0.007843,-1.960784,-1.960784,-1.960784,3
0,-2.823529,-5.647059,-0.007843,-0.007843,-0.007843,-1.960784,-1.960784,-1.960784,3
0,-2.823529,-5.647059,-0.007843,-0.007843,-0.007843,-1.960784,-1.960784,-1.960784,3
0,-2.823529,-5.647059,-0.007843,-0.007843,-0.007843,-1.960784,-1.960784,-1.960784,3
0,-2.823529,-5.647059,-0.007843,-0.007843,-0.007843,-1.960784,-1.960784,-1.960784,3
0,-2.823529,-5.647059,-0.007843,-0.007843,-0.007843,-1.960784,-1.960784,-1.960784,3
0,-2.823529,-5.647059,-0.007843,-0.007843,-0.007843,-1.960784,-1.960784,-1.960784,3
0,-2.823529,-5.647059,-0.007843,-0.007843,-0.007843,-1.960784,-1.960784,-1.960784,3
0,-2.823529,-5.647059,-0.007843,-0.007843,-0.007843,-1.960784,-1.960784,-1.960784,3
0,-2.823529,-5.647059,-0.007843,-0.007843,-0.007843,-1.960784,-1.960784,-1.960784,3
0,-2.823529,-5.647059,-0.007843,-0.007843,-0.007843,-1.960784,-1.960784,-1.960784,3
0,-2.823529,-5.647059,-0.007843,-0.007843,-0.007843,-1.960784,-1.960784,-1.960784,3
0,-2.823529,-5.647059,-0.007843,-0.007843,-0.007843,-1.960784,-1.960784,-1.960784,3
0,-2.823529,-5.647059,-0.007843,-0.007843,-0.007843,-1.960784,-1.960784,-1.960784,3
0,-2.823529,-5.647059,-0.007843,-0.007843,-0.007843,-1.960784,-1.960784,-1.960784,3
0,-2.823529,-5.647059,-0.007843,-0.007843,-0.007843,-1.960784,-1.960784,-1.960784,3
0,-2.823529,-5.647059,-0.007843,-0.007843,-0.007843,-1.960784,-1.960784,-1.960784,3
0,-2.823529,-5.647059,-0.007843,-0.007843,-0.007843,-1.960784,-1.960784,-1.960784,3
0,-2.823529,-5.647059,-0.007843,-0.007843,-0.007843,-1.960784,-1.960784,-1.960784,3
0,-2.823529,-5.647059,-0.007843,-0.007843,-0.007843,-1.960784,-1.960784,-1.960784,3
0,-2.823529,-5.647059,-0.007843,-0.007843,-0.007843,-1.960784,-1.960784,-1.960784,3
0,-2.823529,-5.647059,-0.007843,-0.007843,-0.007843,-1.960784,-1.960784,-1.960784,3
0,0,-5.647059,-0.007843,-0.007843,-0.007843,-1.960784,-1.960784,-1.960784,3
0,-2.823529,-5.647059,-0.007843,-0.007843,-0.007843,-1.960784,-1.960784,-1.960784,3
0,-2.823529,-5.647059,-0.007843,-0.007843,-0.007843,-1.960784,-1.960784,-1.960784,3
0,-2.823529,-5.647059,-0.007843,-0.007843,-0.007843,-1.960784,-1.960784,-1.960784,3
0,-2.823529,-5.647059,-0.007843,-0.007843,-0.007843,-1.960784,-1.960784,-1.960784,3
0,-2.823529,-5.647059,-0.007843,-0.007843,-0.007843,-1.960784,-1.960784,-1.960784,3
0,-2.823529,-5.647059,-0.007843,-0.007843,-0.007843,-1.960784,-1.960784,-1.960784,3
0,-2.823529,-5.647059,-0.007843,-0.007843,-0.007843,-1.960784,-1.960784,-1.960784,3
0,-2.823529,-5.647059,-0.007843,-0.007843,-0.023529,-1.960784,-1.960784,-1.960784,3
0,-2.823529,-5.647059,-0.007843,-0.007843,0.007843,-1.960784,-1.960784,-1.960784,3
0,-2.823529,-5.647059,-0.007843,-0.007843,-0.007843,-1.960784,-1.960784,-1.960784,3
0,-2.823529,-5.647059,-0.007843,-0.007843,-0.007843,-1.960784,-1.960784,-1.960784,3
0,-2.823529,-5.647059,-0.007843,-0.007843,-0.007843,-1.960784,-1.960784,-1.960784,3
0,-2.823529,-5.647059,-0.007843,-0.007843,-0.007843,-1.960784,-1.960784,-1.960784,3
0,-2.823529,-5.647059,-0.007843,-0.007843,-0.007843,-1.960784,-1.960784,-1.960784,3
0,-2.823529,-5.647059,-0.007843,-0.007843,-0.007843,-1.960784,-1.960784,-1.960784,3
0,-2.823529,-5.647059,-0.007843,-0.007843,0.007843,-1.960784,-1.960784,-1.960784,3
0,-2.823529,-5.647059,-0.007843,-0.007843,-0.007843,-1.960784,-1.960784,-1.960784,3
0,-2.823529,-5.647059,-0.007843,-0.007843,-0.007843,-1.960784,-1.960784,-1.960784,3
0,-2.823529,-5.647059,-0.007843,-0.007843,-0.007843,-1.960784,-1.960784,-1.960784,3
0,-2.823529,-5.647059,-0.007843,-0.007843,-0.007843,-1.960784,-1.960784,-1.960784,3
0,-2.823529,-5.647059,-0.007843,-0.007843,-0.007843,-1.960784,-1.960784,-1.960784,3
0,-2.823529,-5.647059,-0.007843,-0.007843,-0.007843,-1.960784,-1.960784,-1.960784,3
0,-2.823529,-5.647059,-0.007843,-0.007843,-0.007843,-1.960784,-1.960784,-1.960784,3
0,-2.823529,-5.647059,-0.007843,-0.007843,-0.007843,-1.960784,-1.960784,-1.960784,3
0,-2.823529,-5.647059,-0.007843,-0.007843,-0.007843,-1.960784,-1.960784,-1.960784,3
0,-2.823529,-5.647059,-0.007843,-0.007843,-0.007843,-1.960784,-1.960784,-1.960784,3
0,-2.823529,-5.647059,-0.007843,-0.007843,-0.007843,-1.960784,-1.960784,-1.960784,3
0,-2.823529,-5.647059,-0.007843,-0.007843,-0.007843,-1.960784,-1.960784,-1.960784,3
0,-2.823529,-5.647059,-0.007843,-0.007843,-0.007843,-1.960784,-1.960784,-1.960784,3
0,-2.823529,-5.647059,-0.007843,-0.007843,-0.007843,-1.960784,-1.960784,-1.960784,3
0,-2.823529,-5.647059,-0.007843,-0.007843,-0.007843,-1.960784,-1.960784,-1.960784,3
0,-2.823529,-5.647059,-0.007843,-0.007843,-0.007843,-1.960784,-1.960784,-1.960784,3
0,-2.823529,-5.647059,-0.007843,-0.007843,-0.007843,-1.960784,-1.960784,-1.960784,3
0,-2.823529,-5.647059,-0.007843,-0.007843,-0.007843,-1.960784,-1.960784,-1.960784,3
0,-2.823529,-5.647059,-0.007843,-0.023529,-0.007843,-1.960784,-1.960784,-1.960784,3
0,-2.823529,-5.647059,-0.007843,-0.007843,-0.007843,-1.960784,-1.960784,-1.960784,3
0,-2.823529,-5.647059,-0.007843,-0.007843,-0.007843,-1.960784,-1.960784,-1.960784,3
0,-2.823529,-5.647059,-0.007843,-0.007843,-0.007843,-1.960784,-1.960784,-1.960784,3
0,-2.823529,-5.647059,-0.007843,-0.007843,-0.007843,-1.960784,-1.960784,-1.960784,3
0,-2.823529,-5.647059,-0.007843,-0.007843,-0.007843,-1.960784,-1.960784,-1.960784,3
0,-2.823529,-5.647059,-0.007843,-0.007843,-0.007843,-1.960784,-1.960784,-1.960784,3
0,-2.823529,-5.647059,-0.007843,-0.007843,-0.007843,-1.960784,-1.960784,-1.960784,3
0,-2.823529,-5.647059,-0.007843,-0.007843,-0.007843,-1.960784,-1.960784,-1.960784,3
0,-2.823529,-5.647059,-0.007843,-0.007843,-0.007843,-1.960784,-1.960784,-1.960784,3
0,-2.823529,-5.647059,-0.007843,-0.007843,-0.007843,-1.960784,-1.960784,-1.960784,3
0,-2.823529,-5.647059,-0.007843,-0.007843,-0.007843,-1.960784,-1.960784,-1.960784,3
0,-2.823529,-5.647059,-0.007843,-0.007843,-0.007843,-1.960784,-1.960784,-1.960784,3
0,-2.823529,-5.647059,-0.007843,-0.007843,-0.007843,-1.960784,-1.960784,-1.960784,3
0,-2.823529,-5.647059,-0.007843,-0.007843,-0.007843,-1.960784,-1.960784,-1.960784,3
0,-2.823529,-5.647059,-0.007843,-0.007843,-0.007843,-1.960784,-1.960784,-1.960784,3
0,-2.823529,-5.647059,-0.007843,-0.007843,-0.007843,-1.960784,-1.960784,-1.960784,3
0,-2.823529,-5.647059,-0.007843,-0.007843,-0.007843,-1.960784,-1.960784,-1.960784,3
0,-2.823529,-5.647059,-0.007843,-0.007843,-0.007843,-1.960784,-1.960784,-1.960784,3
0,-2.823529,-5.647059,-0.007843,-0.007843,-0.007843,-1.960784,-1.960784,-1.960784,3
0,-2.823529,-5.647059,-0.007843,-0.007843,0.007843,-1.960784,-1.960784,-1.960784,3
0,-2.823529,-5.647059,-0.007843,-0.007843,-0.007843,-1.960784,-1.960784,-1.960784,3
0,-2.823529,-5.647059,-0.007843,-0.007843,-0.007843,-1.960784,-1.960784,-1.960784,3
0,-2.823529,-5.647059,-0.007843,-0.007843,-0.007843,-1.960784,-1.960784,-1.960784,3
0,-2.823529,-5.647059,-0.007843,-0.007843,-0.007843,-1.960784,-1.960784,-1.960784,3
0,-2.823529,-5.647059,-0.007843,-0.007843,-0.007843,-1.960784,-1.960784,-1.960784,3
0,-2.823529,-5.647059,-0.007843,-0.007843,0.007843,-1.960784,-1.960784,-1.960784,3
0,-2.823529,-5.647059,-0.007843,-0.007843,-0.007843,-1.960784,-1.960784,-1.960784,3
0,0,-5.647059,-0.007843,-0.007843,-0.007843,-1.960784,-1.960784,-1.960784,3
-2.823529,-2.823529,-5.647059,-0.007843,-0.007843,-0.007843,-1.960784,-1.960784,-1.960784,3
-2.823529,-2.823529,-5.647059,-0.007843,-0.007843,-0.007843,-1.960784,-1.960784,-1.960784,3
-2.823529,-2.823529,-5.647059,-0.007843,-0.007843,-0.007843,-1.960784,-1.960784,-1.960784,3
-2.823529,-2.823529,-5.647059,-0.007843,-0.007843,-0.007843,-1.960784,-1.960784,-1.960784,3
-2.823529,0,-5.647059,-0.007843,-0.007843,-0.007843,-1.960784,-1.960784,-1.960784,3
-2.823529,-2.823529,-5.647059,-0.007843,-0.007843,0.007843,-1.960784,-1.960784,-1.960784,3
-2.823529,-2.823529,-5.647059,-0.007843,-0.007843,-0.007843,-1.960784,-1.960784,-1.960784,3
-2.823529,-2.823529,-5.647059,-0.007843,-0.007843,-0.007843,-1.960784,-1.960784,-1.960784,3
-2.823529,-2.823529,-5.647059,-0.007843,-0.007843,-0.007843,-1.960784,-1.960784,-1.960784,3
-2.823529,-2.823529,-5.647059,-0.007843,-0.007843,-0.007843,-1.960784,-1.960784,-1.960784,3
-2.823529,-2.823529,-5.647059,-0.007843,-0.007843,-0.007843,-1.960784,-1.960784,-1.960784,3
-2.823529,-2.823529,-5.647059,-0.007843,-0.007843,-0.007843,-1.960784,-1.960784,-1.960784,3
-2.823529,-2.823529,-5.647059,-0.007843,-0.007843,-0.007843,-1.960784,-1.960784,-1.960784,3
-2.823529,-2.823529,-5.647059,-0.007843,-0.007843,-0.007843,-1.960784,-1.960784,-1.960784,3
-2.823529,-2.823529,-5.647059,-0.007843,-0.007843,-0.007843,-1.960784,-1.960784,-1.960784,3
-2.823529,-2.823529,-5.647059,-0.007843,-0.007843,-0.007843,-1.960784,-1.960784,-1.960784,3
-2.823529,-2.823529,-5.647059,-0.007843,-0.007843,-0.007843,-1.960784,-1.960784,-1.960784,3
-2.823529,-2.823529,-5.647059,-0.007843,-0.007843,-0.007843,-1.960784,-1.960784,-1.960784,3
-2.823529,-2.823529,-5.647059,-0.007843,-0.007843,-0.007843,-1.960784,-1.960784,-1.960784,3
-2.823529,-2.823529,-5.647059,-0.007843,-0.007843,-0.007843,-1.960784,-1.960784,-1.960784,3
-2.823529,-2.823529,-5.647059,-0.007843,-0.007843,-0.007843,-1.960784,-1.960784,-1.960784,3
-2.823529,-2.823529,-5.647059,-0.007843,-0.007843,-0.007843,-1.960784,-1.960784,-1.960784,3
-2.823529,-2.823529,-5.647059,-0.007843,-0.007843,-0.007843,-1.960784,-1.960784,-1.960784,3
-2.823529,-2.823529,-5.647059,-0.007843,-0.007843,-0.007843,-1.960784,-1.960784,-1.960784,3
-2.823529,-2.823529,-5.647059,-0.007843,-0.007843,-0.007843,-1.960784,-1.960784,-1.960784,3
-2.823529,-2.823529,-5.647059,-0.007843,-0.007843,-0.007843,-1.960784,-1.960784,-1.960784,3
-2.823529,0,-5.647059,-0.007843,-0.007843,-0.007843,-1.960784,-1.960784,-1.960784,3
-2.823529,0,-5.647059,-0.007843,-0.007843,-0.007843,-1.960784,-1.960784,-1.960784,3
-2.823529,0,-5.647059,-0.007843,-0.007843,-0.007843,-1.960784,-1.960784,-1.960784,3
-2.823529,-2.823529,-5.647059,-0.007843,-0.007843,-0.007843,-1.960784,-1.960784,-1.960784,3
-2.823529,-2.823529,-5.647059,-0.007843,-0.007843,-0.007843,-1.960784,-1.960784,-1.960784,3
-2.823529,0,-5.647059,-0.007843,-0.007843,-0.007843,-1.960784,-1.960784,-1.960784,3
-2.823529,0,-5.647059,-0.007843,-0.007843,-0.007843,-1.960784,-1.960784,-1.960784,3
-2.823529,0,-5.647059,-0.007843,-0.007843,-0.007843,-1.960784,-1.960784,-1.960784,3
-2.823529,0,-5.647059,-0.007843,-0.007843,-0.007843,-1.960784,-1.960784,-1.960784,3
-2.823529,0,-5.647059,-0.007843,-0.007843,-0.007843,-1.960784,-1.960784,-1.960784,3
-2.823529,0,-5.647059,-0.007843,-0.007843,-0.007843,-1.960784,-1.960784,-1.960784,3
-2.823529,0,-5.647059,-0.007843,-0.007843,-0.007843,-1.960784,-1.960784,-1.960784,3
-2.823529,0,-5.647059,-0.007843,-0.007843,-0.007843,-1.960784,-1.960784,-1.960784,3
-2.823529,0,-5.647059,-0.007843,-0.007843,-0.007843,-1.960784,-1.960784,-1.960784,3
-2.823529,0,-5.647059,-0.007843,-0.007843,-0.007843,-1.960784,-1.960784,-1.960784,3
-2.823529,0,-5.647059,-0.007843,-0.007843,-0.007843,-1.960784,-1.960784,-1.960784,3
-2.823529,0,-5.647059,-0.007843,-0.007843,-0.007843,-1.960784,-1.960784,-1.960784,3
-2.823529,0,-5.647059,-0.007843,-0.007843,-0.007843,-1.960784,-1.960784,-1.960784,3
-2.823529,0,-5.647059,-0.007843,-0.007843,-0.007843,-1.960784,-1.960784,-1.960784,3
-2.823529,0,-5.647059,-0.007843,-0.007843,-0.007843,-1.960784,-1.960784,-1.960784,3
-2.823529,0,-5.647059,-0.007843,-0.007843,-0.007843,-1.960784,-1.960784,-1.960784,3
-2.823529,0,-5.647059,-0.007843,-0.007843,-0.007843,-1.960784,-1.960784,-1.960784,3
-2.823529,0,-5.647059,-0.007843,-0.007843,-0.007843,-1.960784,-1.960784,-1.960784,3
-2.823529,0,-5.647059,-0.007843,-0.007843,-0.007843,-1.960784,-1.960784,-1.960784,3
-2.823529,0,-5.647059,-0.007843,-0.007843,-0.007843,-1.960784,-1.960784,-1.960784,3
-2.823529,0,-5.647059,-0.007843,-0.007843,-0.007843,-1.960784,-1.960784,-1.960784,3
-2.823529,0,-5.647059,-0.007843,-0.007843,-0.007843,-1.960784,-1.960784,-1.960784,3
-2.823529,0,-5.647059,-0.007843,-0.007843,0.007843,-1.960784,-1.960784,-1.960784,3
-2.823529,-2.823529,-5.647059,-0.007843,-0.007843,-0.007843,-1.960784,-1.960784,-1.960784,3
-2.823529,-2.823529,-5.647059,-0.007843,-0.007843,-0.007843,-1.960784,-1.960784,-1.960784,3
0,-2.823529,-5.647059,-0.007843,-0.007843,-0.007843,-1.960784,-1.960784,-1.960784,3
-2.823529,-2.823529,-5.647059,-0.007843,-0.007843,-0.007843,-1.960784,-1.960784,-1.960784,3
-2.823529,-2.823529,-5.647059,-0.007843,-0.007843,-0.007843,-1.960784,-1.960784,-1.960784,3
-2.823529,-2.823529,-5.647059,-0.007843,-0.007843,-0.007843,-1.960784,-1.960784,-1.960784,3
0,-2.823529,-5.647059,-0.007843,-0.007843,-0.007843,-1.960784,-1.960784,-1.960784,3
0,-2.823529,-5.647059,-0.007843,-0.007843,-0.007843,-1.960784,-1.960784,-1.960784,3
0,-2.823529,-5.647059,-0.007843,-0.007843,-0.007843,-1.960784,-1.960784,-1.960784,3
0,-2.823529,-5.647059,-0.007843,-0.007843,-0.007843,-1.960784,-1.960784,-1.960784,3
0,-2.823529,-5.647059,-0.007843,-0.007843,-0.007843,-1.960784,-1.960784,-1.960784,3
0,-2.823529,-5.647059,-0.007843,-0.007843,-0.007843,-1.960784,-1.960784,-1.960784,3
0,-2.823529,-5.647059,-0.007843,-0.007843,-0.007843,-1.960784,-1.960784,-1.960784,3
0,-2.823529,-5.647059,-0.007843,-0.007843,-0.007843,-1.960784,-1.960784,-1.960784,3
0,-2.823529,-5.647059,-0.007843,-0.007843,0.007843,-1.960784,-1.960784,-1.960784,3
0,-2.823529,-5.647059,-0.007843,-0.007843,-0.007843,-1.960784,-1.960784,-1.960784,3
0,-2.823529,-5.647059,-0.007843,-0.007843,-0.007843,-1.960784,-1.960784,-1.960784,3
0,0,-5.647059,-0.007843,-0.007843,-0.007843,-1.960784,-1.960784,-1.960784,3
-2.823529,0,-5.647059,-0.007843,-0.007843,-0.007843,-1.960784,-1.960784,-1.960784,3
-2.823529,0,-5.647059,-0.007843,-0.007843,-0.007843,-1.960784,-1.960784,-1.960784,3
0,0,-5.647059,-0.007843,-0.007843,-0.007843,-1.960784,-1.960784,-1.960784,3
0,0,-5.647059,-0.007843,-0.007843,-0.007843,-1.960784,-1.960784,-1.960784,3
0,-2.823529,-5.647059,-0.007843,-0.007843,-0.007843,-1.960784,-1.960784,-1.960784,3
0,0,-5.647059,-0.007843,-0.007843,-0.007843,-1.960784,-1.960784,-1.960784,3
0,-2.823529,-5.647059,-0.007843,-0.007843,-0.007843,-1.960784,-1.960784,-1.960784,3
0,-2.823529,-5.647059,-0.007843,-0.007843,-0.007843,-1.960784,-1.960784,-1.960784,3
0,-2.823529,-5.647059,-0.007843,-0.007843,-0.007843,-1.960784,-1.960784,-1.960784,3
0,-2.823529,-5.647059,-0.007843,-0.007843,-0.007843,-1.960784,-1.960784,-1.960784,3
0,-2.823529,-5.647059,-0.007843,-0.007843,0.007843,-1.960784,-1.960784,-1.960784,3
0,-2.823529,-5.647059,-0.007843,-0.007843,-0.007843,-1.960784,-1.960784,-1.960784,3
0,-2.823529,-5.647059,-0.007843,-0.007843,-0.007843,-1.960784,-1.960784,-1.960784,3
0,-2.823529,-5.647059,-0.007843,-0.007843,-0.007843,-1.960784,-1.960784,-1.960784,3
0,-2.823529,-5.647059,-0.007843,-0.007843,-0.007843,-1.960784,-1.960784,-1.960784,3
0,-2.823529,-5.647059,-0.007843,-0.007843,-0.007843,-1.960784,-1.960784,-1.960784,3
0,-2.823529,-5.647059,-0.007843,-0.007843,-0.007843,-1.960784,-1.960784,-1.960784,3
0,-2.823529,-5.647059,-0.007843,-0.007843,-0.007843,-1.960784,-1.960784,-1.960784,3
0,-2.823529,-5.647059,-0.007843,-0.007843,-0.007843,-1.960784,-1.960784,-1.960784,3
0,-2.823529,-5.647059,-0.007843,-0.007843,-0.007843,-1.960784,-1.960784,-1.960784,3
0,-2.823529,-5.647059,-0.007843,-0.007843,-0.007843,-1.960784,-1.960784,-1.960784,3
0,-2.823529,-5.647059,-0.007843,-0.007843,-0.007843,-1.960784,-1.960784,-1.960784,3
0,-2.823529,-5.647059,-0.007843,-0.007843,-0.007843,-1.960784,-1.960784,-1.960784,3
0,-2.823529,-5.647059,-0.007843,-0.007843,-0.007843,-1.960784,-1.960784,-1.960784,3
0,-2.823529,-5.647059,-0.007843,-0.007843,-0.007843,-1.960784,-1.960784,-1.960784,3
0,-2.823529,-5.647059,-0.007843,-0.007843,-0.007843,-1.960784,-1.960784,-1.960784,3
0,-2.823529,-5.647059,-0.007843,-0.007843,-0.007843,-1.960784,-1.960784,-1.960784,3
0,-2.823529,-5.647059,-0.007843,-0.007843,-0.007843,-1.960784,-1.960784,-1.960784,3
0,-2.823529,-5.647059,-0.007843,-0.007843,-0.007843,-1.960784,-1.960784,-1.960784,3
0,-2.823529,-5.647059,-0.007843,-0.007843,-0.007843,-1.960784,-1.960784,-1.960784,3
0,-2.823529,-5.647059,-0.007843,-0.007843,-0.023529,-1.960784,-1.960784,-1.960784,3
0,-2.823529,-5.647059,-0.007843,-0.007843,-0.007843,-1.960784,-1.960784,-1.960784,3
0,-2.823529,-5.647059,-0.007843,-0.007843,-0.007843,-1.960784,-1.960784,-1.960784,3
0,-2.823529,-5.647059,-0.007843,-0.007843,-0.007843,-1.960784,-1.960784,-1.960784,3
0,-2.823529,-5.647059,-0.007843,-0.007843,-0.007843,-1.960784,-1.960784,-1.960784,3
0,-2.823529,-5.647059,-0.007843,-0.007843,-0.007843,-1.960784,-1.960784,-1.960784,3
-2.823529,-2.823529,-5.647059,-0.007843,-0.007843,-0.007843,-1.960784,-1.960784,-1.960784,3
-2.823529,-2.823529,-5.647059,-0.007843,-0.007843,-0.007843,-1.960784,-1.960784,-1.960784,3
-2.823529,-2.823529,-5.647059,-0.007843,-0.007843,-0.007843,-1.960784,-1.960784,-1.960784,3
-2.823529,-2.823529,-5.647059,-0.007843,-0.007843,0.007843,-1.960784,-1.960784,-1.960784,3
-2.823529,-2.823529,-5.647059,-0.007843,-0.007843,-0.007843,-1.960784,-1.960784,-1.960784,3
-2.823529,-2.823529,-5.647059,-0.007843,-0.007843,-0.007843,-1.960784,-1.960784,-1.960784,3
-2.823529,-2.823529,-5.647059,-0.007843,-0.007843,-0.007843,-1.960784,-1.960784,-1.960784,3
-2.823529,-2.823529,-5.647059,-0.007843,-0.007843,-0.007843,-1.960784,-1.960784,-1.960784,3
-2.823529,-2.823529,-5.647059,-0.007843,-0.007843,-0.007843,-1.960784,-1.960784,-1.960784,3
-2.823529,-2.823529,-5.647059,-0.007843,-0.007843,-0.007843,-1.960784,-1.960784,-1.960784,3
-2.823529,-2.823529,-5.647059,-0.007843,-0.007843,-0.007843,-1.960784,-1.960784,-1.960784,3
-2.823529,-2.823529,-5.647059,-0.007843,-0.007843,-0.007843,-1.960784,-1.960784,-1.960784,3
-2.823529,-2.823529,-5.647059,-0.007843,-0.007843,-0.007843,-1.960784,-1.960784,-1.960784,3
-2.823529,-2.823529,-5.647059,-0.007843,-0.007843,-0.007843,-1.960784,-1.960784,-1.960784,3
-2.823529,-2.823529,-5.647059,-0.007843,-0.007843,0.007843,-1.960784,-1.960784,-1.960784,3
-2.823529,-2.823529,-5.647059,-0.007843,-0.007843,-0.007843,-1.960784,-1.960784,-1.960784,3
-2.823529,-2.823529,-5.647059,-0.007843,-0.007843,-0.007843,-1.960784,-1.960784,-1.960784,3
-2.823529,-2.823529,-5.647059,-0.007843,-0.007843,0.007843,-1.960784,-1.960784,-1.960784,3
-2.823529,-2.823529,-5.647059,-0.007843,-0.007843,-0.007843,-1.960784,-1.960784,-1.960784,3
-2.823529,-2.823529,-5.647059,-0.007843,-0.007843,-0.007843,-1.960784,-1.960784,-1.960784,3
-2.823529,-2.823529,-5.647059,-0.007843,-0.007843,-0.007843,-1.960784,-1.960784,-1.960784,3
-2.823529,-2.823529,-5.647059,-0.007843,-0.007843,-0.007843,-1.960784,-1.960784,-1.960784,3
-2.823529,-2.823529,-5.647059,-0.007843,-0.007843,-0.007843,-1.960784,-1.960784,-1.960784,3
-2.823529,-2.823529,-5.647059,-0.007843,-0.007843,-0.007843,-1.960784,-1.960784,-1.960784,3
-2.823529,-2.823529,-5.647059,-0.007843,-0.007843,-0.007843,-1.960784,-1.960784,-1.960784,3
-2.823529,-2.823529,-5.647059,-0.007843,-0.007843,-0.007843,-1.960784,-1.960784,-1.960784,3
-2.823529,-2.823529,-5.647059,-0.007843,-0.007843,-0.007843,-1.960784,-1.960784,-1.960784,3
-2.823529,-2.823529,-5.647059,-0.007843,-0.007843,-0.007843,-1.960784,-1.960784,-1.960784,3
-2.823529,-2.823529,-5.647059,-0.007843,-0.007843,-0.007843,-1.960784,-1.960784,-1.960784,3
-2.823529,-2.823529,-5.647059,-0.007843,-0.007843,-0.007843,-1.960784,-1.960784,-1.960784,3
-2.823529,-2.823529,-5.647059,-0.007843,-0.007843,-0.007843,-1.960784,-1.960784,-1.960784,3
-2.823529,-2.823529,-5.647059,-0.007843,-0.007843,-0.007843,-1.960784,-1.960784,-1.960784,3
-2.823529,-2.823529,-5.647059,-0.007843,-0.007843,-0.007843,-1.960784,-1.960784,-1.960784,3
-2.823529,-2.823529,-5.647059,-0.007843,-0.007843,-0.007843,-1.960784,-1.960784,-1.960784,3
-2.823529,-2.823529,-5.647059,-0.007843,-0.007843,-0.007843,-1.960784,-1.960784,-1.960784,3
-2.823529,-2.823529,-5.647059,-0.007843,-0.007843,-0.007843,-1.960784,-1.960784,-1.960784,3
-2.823529,-2.823529,-5.647059,-0.007843,-0.007843,-0.007843,-1.960784,-1.960784,-1.960784,3
-2.823529,-2.823529,-5.647059,-0.007843,-0.007843,-0.007843,-1.960784,-1.960784,-1.960784,3
-2.823529,-2.823529,-5.647059,-0.007843,-0.007843,-0.007843,-1.960784,-1.960784,-1.960784,3
-2.823529,-2.823529,-5.647059,-0.007843,-0.007843,-0.007843,-1.960784,-1.960784,-1.960784,3
-2.823529,-2.823529,-5.647059,-0.007843,-0.007843,-0.007843,-1.960784,-1.960784,-1.960784,3
-2.823529,-2.823529,-5.647059,-0.007843,-0.007843,-0.007843,-1.960784,-1.960784,-1.960784,3
-2.823529,-2.823529,-5.647059,-0.007843,-0.007843,-0.007843,-1.960784,-1.960784,-1.960784,3
-2.823529,-2.823529,-5.647059,-0.007843,-0.007843,-0.007843,-1.960784,-1.960784,-1.960784,3
-2.823529,-2.823529,-5.647059,-0.007843,-0.007843,-0.007843,-1.960784,-1.960784,-1.960784,3
-2.823529,-2.823529,-5.647059,-0.007843,-0.007843,-0.007843,-1.960784,-1.960784,-1.960784,3
-2.823529,-2.823529,-5.647059,-0.007843,-0.007843,-0.007843,-1.960784,-1.960784,-1.960784,3
-2.823529,-2.823529,-5.647059,-0.007843,-0.007843,-0.007843,-1.960784,-1.960784,-1.960784,3
-2.823529,-2.823529,-5.647059,-0.007843,-0.007843,-0.007843,-1.960784,-1.960784,-1.960784,3
-2.823529,-2.823529,-5.647059,-0.007843,-0.007843,-0.007843,-1.960784,-1.960784,-1.960784,3
-2.823529,-2.823529,-5.647059,-0.007843,-0.007843,-0.007843,-1.960784,-1.960784,-1.960784,3
-2.823529,-2.823529,-5.647059,-0.007843,-0.007843,-0.007843,-1.960784,-1.960784,-1.960784,3
-2.823529,-2.823529,-5.647059,-0.007843,-0.007843,-0.007843,-1.960784,-1.960784,-1.960784,3
-2.823529,-2.823529,-5.647059,-0.007843,-0.007843,-0.007843,-1.960784,-1.960784,-1.960784,3
-2.823529,-2.823529,-5.647059,-0.007843,-0.007843,-0.007843,-1.960784,-1.960784,-1.960784,3
-2.823529,-2.823529,-5.647059,-0.007843,-0.007843,-0.007843,-1.960784,-1.960784,-1.960784,3
-2.823529,-2.823529,-5.647059,-0.007843,-0.007843,-0.007843,-1.960784,-1.960784,-1.960784,3
-2.823529,-2.823529,-5.647059,-0.007843,-0.007843,-0.007843,-1.960784,-1.960784,-1.960784,3
-2.823529,-2.823529,-5.647059,-0.007843,-0.007843,-0.007843,-1.960784,-1.960784,-1.960784,3
-2.823529,-2.823529,-5.647059,-0.007843,-0.007843,-0.007843,-1.960784,-1.960784,-1.960784,3
-2.823529,-2.823529,-5.647059,-0.007843,-0.007843,-0.007843,-1.960784,-1.960784,-1.960784,3
-2.823529,-2.823529,-5.647059,-0.007843,-0.007843,-0.007843,-1.960784,-1.960784,-1.960784,3
-2.823529,-2.823529,-5.647059,-0.007843,-0.007843,-0.007843,-1.960784,-1.960784,-1.960784,3
-2.823529,-2.823529,-5.647059,-0.007843,-0.007843,-0.007843,-1.960784,-1.960784,-1.960784,3
-2.823529,-2.823529,-5.647059,-0.007843,-0.007843,-0.007843,-1.960784,-1.960784,-1.960784,3
-2.823529,-2.823529,-5.647059,-0.007843,-0.007843,-0.007843,-1.960784,-1.960784,-1.960784,3
-2.823529,-2.823529,-5.647059,-0.007843,-0.007843,-0.007843,-1.960784,-1.960784,-1.960784,3
-2.823529,-2.823529,-5.647059,-0.007843,-0.007843,-0.007843,-1.960784,-1.960784,-1.960784,3
-2.823529,-2.823529,-5.647059,-0.007843,-0.007843,-0.007843,-1.960784,-1.960784,-1.960784,3
-2.823529,-2.823529,-5.647059,-0.007843,-0.007843,-0.007843,-1.960784,-1.960784,-1.960784,3
-2.823529,-2.823529,-5.647059,-0.007843,-0.007843,-0.007843,-1.960784,-1.960784,-1.960784,3
-2.823529,-2.823529,-5.647059,-0.007843,-0.007843,-0.007843,-1.960784,-1.960784,-1.960784,3
-2.823529,-2.823529,-5.647059,-0.007843,-0.007843,-0.007843,-1.960784,-1.960784,-1.960784,3
-2.823529,-2.823529,-5.647059,-0.007843,-0.007843,-0.007843,-1.960784,-1.960784,-1.960784,3
-2.823529,-2.823529,-5.647059,-0.007843,-0.007843,-0.007843,-1.960784,-1.960784,-1.960784,3
-2.823529,-2.823529,-5.647059,-0.007843,-0.007843,-0.007843,-1.960784,-1.960784,-1.960784,3
-2.823529,-2.823529,-5.647059,-0.007843,-0.007843,-0.007843,-1.960784,-1.960784,-1.960784,3
-2.823529,-2.823529,-5.647059,-0.007843,-0.007843,-0.007843,-1.960784,-1.960784,-1.960784,3
-2.823529,-2.823529,-5.647059,-0.007843,-0.007843,-0.007843,-1.960784,-1.960784,-1.960784,3
-2.823529,-2.823529,-5.647059,-0.007843,-0.007843,-0.007843,-1.960784,-1.960784,-1.960784,3
-2.823529,0,-5.647059,-0.007843,-0.007843,-0.007843,-1.960784,-1.960784,-1.960784,3
-2.823529,0,-5.647059,-0.007843,-0.007843,-0.007843,-1.960784,-1.960784,-1.960784,3
-2.823529,-2.823529,-5.647059,-0.007843,-0.007843,-0.007843,-1.960784,-1.960784,-1.960784,3
-2.823529,-2.823529,-5.647059,-0.007843,-0.007843,-0.007843,-1.960784,-1.960784,-1.960784,3
0,-2.823529,-5.647059,-0.007843,-0.007843,-0.007843,-1.960784,-1.960784,-1.960784,3
0,-2.823529,-5.647059,-0.007843,-0.007843,-0.007843,-1.960784,-1.960784,-1.960784,3
0,0,-5.647059,-0.007843,-0.007843,-0.007843,-1.960784,-1.960784,-1.960784,3
0,0,-5.647059,-0.007843,-0.007843,-0.007843,-1.960784,-1.960784,-1.960784,3
0,0,-5.647059,-0.007843,-0.007843,-0.007843,-1.960784,-1.960784,-1.960784,3
0,0,-5.647059,-0.007843,-0.007843,-0.007843,-1.960784,-1.960784,-1.960784,3
0,0,-5.647059,-0.007843,-0.007843,-0.007843,-1.960784,-1.960784,-1.960784,3
0,0,-5.647059,-0.007843,-0.007843,-0.007843,-1.960784,-1.960784,-1.960784,3
0,0,-5.647059,-0.007843,-0.007843,-0.007843,-1.960784,-1.960784,-1.960784,3
0,0,-5.647059,-0.007843,-0.007843,-0.007843,-1.960784,-1.960784,-1.960784,3
0,0,-5.647059,-0.007843,-0.007843,-0.007843,-1.960784,-1.960784,-1.960784,3
0,0,-5.647059,-0.007843,-0.007843,-0.007843,-1.960784,-1.960784,-1.960784,3
0,0,-5.647059,-0.007843,-0.007843,-0.007843,-1.960784,-1.960784,-1.960784,3
0,0,-5.647059,-0.007843,-0.007843,-0.007843,-1.960784,-1.960784,-1.960784,3
0,0,-5.647059,-0.007843,-0.007843,-0.007843,-1.960784,-1.960784,-1.960784,3
0,0,-5.647059,-0.007843,-0.007843,-0.007843,-1.960784,-1.960784,-1.960784,3
0,0,-5.647059,-0.007843,-0.007843,-0.007843,-1.960784,-1.960784,-1.960784,3
0,0,-5.647059,-0.007843,-0.007843,0.007843,-1.960784,-1.960784,-1.960784,3
0,0,-5.647059,-0.007843,-0.007843,-0.007843,-1.960784,-1.960784,-1.960784,3
0,0,-5.647059,-0.007843,-0.007843,-0.007843,-1.960784,-1.960784,-1.960784,3
0,0,-5.647059,-0.007843,-0.007843,-0.007843,-1.960784,-1.960784,-1.960784,3
0,0,-5.647059,-0.007843,-0.007843,-0.007843,-1.960784,-1.960784,-1.960784,3
0,0,-5.647059,-0.007843,-0.007843,-0.007843,-1.960784,-1.960784,-1.960784,3
0,0,-5.647059,-0.007843,-0.007843,-0.007843,-1.960784,-1.960784,-1.960784,3
0,0,-5.647059,-0.007843,-0.007843,-0.007843,-1.960784,-1.960784,-1.960784,3
0,0,-5.647059,-0.007843,-0.007843,-0.007843,-1.960784,-1.960784,-1.960784,3
0,0,-5.647059,-0.007843,-0.007843,-0.007843,-1.960784,-1.960784,-1.960784,3
0,0,-5.647059,-0.007843,-0.007843,-0.007843,-1.960784,-1.960784,-1.960784,3
0,0,-5.647059,-0.007843,-0.007843,-0.007843,-1.960784,-1.960784,-1.960784,3
0,0,-5.647059,-0.007843,-0.007843,-0.007843,-1.960784,-1.960784,-1.960784,3
0,0,-5.647059,-0.007843,-0.007843,-0.007843,-1.960784,-1.960784,-1.960784,3
0,0,-5.647059,-0.007843,-0.007843,-0.007843,-1.960784,-1.960784,-1.960784,3
0,0,-5.647059,-0.007843,-0.007843,-0.007843,-1.960784,-1.960784,-1.960784,3
0,0,-5.647059,-0.007843,-0.007843,-0.007843,-1.960784,-1.960784,-1.960784,3
0,0,-5.647059,-0.007843,-0.007843,-0.007843,-1.960784,-1.960784,-1.960784,3
0,0,-5.647059,-0.007843,-0.007843,-0.007843,-1.960784,-1.960784,-1.960784,3
0,0,-5.647059,-0.007843,-0.007843,-0.007843,-1.960784,-1.960784,-1.960784,3
0,0,-5.647059,-0.007843,-0.007843,-0.007843,-1.960784,-1.960784,-1.960784,3
0,0,-5.647059,-0.007843,-0.007843,-0.007843,-1.960784,-1.960784,-1.960784,3
0,0,-5.647059,-0.007843,-0.007843,-0.007843,-1.960784,-1.960784,-1.960784,3
0,0,-5.647059,-0.007843,-0.007843,-0.007843,-1.960784,-1.960784,-1.960784,3
0,0,-5.647059,-0.007843,-0.007843,-0.007843,-1.960784,-1.960784,-1.960784,3
0,0,-5.647059,-0.007843,-0.007843,-0.007843,-1.960784,-1.960784,-1.960784,3
0,0,-5.647059,-0.007843,-0.007843,0.007843,-1.960784,-1.960784,-1.960784,3
0,0,-5.647059,-0.007843,-0.007843,-0.007843,-1.960784,-1.960784,-1.960784,3
-2.823529,0,-5.647059,-0.007843,-0.007843,-0.007843,-1.960784,-1.960784,-1.960784,3
-2.823529,0,-5.647059,-0.007843,-0.007843,0.007843,-1.960784,-1.960784,-1.960784,3
-2.823529,0,-5.647059,-0.007843,-0.007843,-0.007843,-1.960784,-1.960784,-1.960784,3
-2.823529,0,-5.647059,-0.007843,-0.007843,-0.007843,-1.960784,-1.960784,-1.960784,3
-2.823529,-2.823529,-5.647059,-0.007843,-0.007843,-0.007843,-1.960784,-1.960784,-1.960784,3
-2.823529,0,-5.647059,-0.007843,-0.007843,0.007843,-1.960784,-1.960784,-1.960784,3
-2.823529,-2.823529,-5.647059,-0.007843,-0.007843,-0.007843,-1.960784,-1.960784,-1.960784,3
-2.823529,-2.823529,-5.647059,-0.007843,-0.007843,-0.007843,-1.960784,-1.960784,-1.960784,3
-2.823529,-2.823529,-5.647059,-0.007843,-0.007843,-0.007843,-1.960784,-1.960784,-1.960784,3
-2.823529,0,-5.647059,-0.007843,-0.007843,-0.007843,-1.960784,-1.960784,-1.960784,3
-2.823529,-2.823529,-5.647059,-0.007843,-0.007843,-0.007843,-1.960784,-1.960784,-1.960784,3
-2.823529,-2.823529,-5.647059,-0.007843,-0.007843,-0.007843,-1.960784,-1.960784,-1.960784,3
-2.823529,0,-5.647059,-0.007843,-0.007843,-0.007843,-1.960784,-1.960784,-1.960784,3
-2.823529,-2.823529,-5.647059,-0.007843,-0.007843,-0.007843,-1.960784,-1.960784,-1.960784,3
-2.823529,-2.823529,-5.647059,-0.007843,-0.007843,-0.007843,-1.960784,-1.960784,-1.960784,3
-2.823529,0,-5.647059,-0.007843,-0.007843,-0.007843,-1.960784,-1.960784,-1.960784,3
-2.823529,0,-5.647059,-0.007843,-0.007843,-0.007843,-1.960784,-1.960784,-1.960784,3
-2.823529,0,-5.647059,-0.007843,-0.007843,-0.007843,-1.960784,-1.960784,-1.960784,3
-2.823529,0,-5.647059,-0.007843,-0.007843,-0.007843,-1.960784,-1.960784,-1.960784,3
0,0,-5.647059,-0.007843,-0.007843,-0.007843,-1.960784,-1.960784,-1.960784,3
0,0,-5.647059,-0.007843,-0.007843,-0.007843,-1.960784,-1.960784,-1.960784,3
0,0,-5.647059,-0.007843,-0.007843,-0.007843,-1.960784,-1.960784,-1.960784,3
0,0,-5.647059,-0.007843,-0.007843,-0.007843,-1.960784,-1.960784,-1.960784,3
0,0,-5.647059,-0.007843,-0.007843,-0.007843,-1.960784,-1.960784,-1.960784,3
0,0,-5.647059,-0.007843,-0.007843,-0.007843,-1.960784,-1.960784,-1.960784,3
0,-2.823529,-5.647059,-0.007843,-0.007843,-0.007843,-1.960784,-1.960784,-1.960784,3
0,-2.823529,-5.647059,-0.007843,-0.007843,-0.007843,-1.960784,-1.960784,-1.960784,3
0,-2.823529,-5.647059,-0.007843,-0.007843,0.007843,-1.960784,-1.960784,-1.960784,3
0,-2.823529,-5.647059,-0.007843,-0.007843,-0.007843,-1.960784,-1.960784,-1.960784,3
0,0,-5.647059,-0.007843,-0.007843,-0.007843,-1.960784,-1.960784,-1.960784,3
0,-2.823529,-5.647059,-0.007843,-0.007843,-0.007843,-1.960784,-1.960784,-1.960784,3
0,-2.823529,-5.647059,-0.007843,-0.007843,0.007843,-1.960784,-1.960784,-1.960784,3
0,-2.823529,-5.647059,-0.007843,-0.007843,-0.007843,-1.960784,-1.960784,-1.960784,3
0,-2.823529,-5.647059,-0.007843,-0.007843,-0.007843,-1.960784,-1.960784,-1.960784,3
0,-2.823529,-5.647059,-0.007843,-0.007843,-0.007843,-1.960784,-1.960784,-1.960784,3
0,-2.823529,-5.647059,-0.007843,-0.007843,-0.007843,-1.960784,-1.960784,-1.960784,3
0,0,-5.647059,-0.007843,-0.007843,-0.007843,-1.960784,-1.960784,-1.960784,3
0,-2.823529,-5.647059,-0.007843,-0.007843,-0.007843,-1.960784,-1.960784,-1.960784,3
0,0,-5.647059,-0.007843,-0.007843,-0.007843,-1.960784,-1.960784,-1.960784,3
0,0,-5.647059,-0.007843,-0.007843,0.007843,-1.960784,-1.960784,-1.960784,3
0,0,-5.647059,-0.007843,-0.007843,0.007843,-1.960784,-1.960784,-1.960784,3
0,0,-5.647059,-0.007843,-0.007843,-0.007843,-1.960784,-1.960784,-1.960784,3
0,0,-5.647059,-0.007843,-0.007843,-0.007843,-1.960784,-1.960784,-1.960784,3
0,0,-5.647059,-0.007843,-0.007843,-0.007843,-1.960784,-1.960784,-1.960784,3
0,0,-5.647059,-0.007843,-0.007843,-0.007843,-1.960784,-1.960784,-1.960784,3
0,0,-5.647059,-0.007843,-0.007843,-0.007843,-1.960784,-1.960784,-1.960784,3
0,-2.823529,-5.647059,-0.007843,-0.007843,-0.007843,-1.960784,-1.960784,-1.960784,3
-2.823529,-2.823529,-5.647059,-0.007843,-0.007843,-0.007843,-1.960784,-1.960784,-1.960784,3
-2.823529,-2.823529,-5.647059,-0.007843,-0.007843,-0.007843,-1.960784,-1.960784,-1.960784,3
0,-2.823529,-5.647059,-0.007843,-0.007843,-0.007843,-1.960784,-1.960784,-1.960784,3
0,-2.823529,-5.647059,-0.007843,-0.007843,-0.007843,-1.960784,-1.960784,-1.960784,3
0,-2.823529,-5.647059,-0.007843,-0.007843,-0.007843,-1.960784,-1.960784,-1.960784,3
-2.823529,-2.823529,-5.647059,-0.007843,-0.007843,-0.007843,-1.960784,-1.960784,-1.960784,3
-2.823529,-2.823529,-5.647059,-0.007843,-0.007843,-0.007843,-1.960784,-1.960784,-1.960784,3
-2.823529,-2.823529,-5.647059,-0.007843,-0.007843,-0.007843,-1.960784,-1.960784,-1.960784,3
-2.823529,-2.823529,-5.647059,-0.007843,-0.007843,-0.007843,-1.960784,-1.960784,-1.960784,3
-2.823529,-2.823529,-5.647059,-0.007843,-0.007843,-0.007843,-1.960784,-1.960784,-1.960784,3
-2.823529,-2.823529,-5.647059,-0.007843,-0.007843,-0.007843,-1.960784,-1.960784,-1.960784,3
-2.823529,-2.823529,-5.647059,-0.007843,-0.007843,-0.007843,-1.960784,-1.960784,-1.960784,3
-2.823529,-2.823529,-5.647059,-0.007843,-0.007843,-0.007843,-1.960784,-1.960784,-1.960784,3
-2.823529,0,-5.647059,-0.007843,-0.007843,-0.007843,-1.960784,-1.960784,-1.960784,3
-2.823529,-2.823529,-5.647059,-0.007843,-0.007843,-0.007843,-1.960784,-1.960784,-1.960784,3
-2.823529,-2.823529,-5.647059,-0.007843,-0.007843,-0.007843,-1.960784,-1.960784,-1.960784,3
-2.823529,-2.823529,-5.647059,-0.007843,-0.007843,-0.007843,-1.960784,-1.960784,-1.960784,3
-2.823529,-2.823529,-5.647059,-0.007843,-0.007843,-0.007843,-1.960784,-1.960784,-1.960784,3
-2.823529,-2.823529,-5.647059,-0.007843,-0.007843,-0.007843,-1.960784,-1.960784,-1.960784,3
-2.823529,-2.823529,-5.647059,-0.007843,-0.007843,-0.007843,-1.960784,-1.960784,-1.960784,3
-2.823529,0,-5.647059,-0.007843,-0.007843,-0.007843,-1.960784,-1.960784,-1.960784,3
-2.823529,0,-5.647059,-0.007843,-0.007843,-0.007843,-1.960784,-1.960784,-1.960784,3
0,0,-5.647059,-0.007843,-0.007843,-0.007843,-1.960784,-1.960784,-1.960784,3
-2.823529,0,-5.647059,-0.007843,-0.007843,-0.007843,-1.960784,-1.960784,-1.960784,3
