Eulerx,Eulery,Eulerz,Accx,Accy,Accz,Gyrox,Gyroy,Gyroz,Label
-2.823529,-2.823529,-36.705882,-0.007843,-0.007843,-0.007843,-1.960784,-1.960784,-1.960784,Null
-2.823529,-2.823529,-36.705882,-0.007843,-0.007843,-0.007843,-1.960784,-1.960784,-1.960784,Null
-2.823529,-2.823529,-36.705882,-0.007843,-0.007843,-0.007843,-1.960784,-1.960784,-1.960784,Null
-2.823529,-2.823529,-36.705882,-0.007843,-0.007843,-0.007843,-1.960784,-1.960784,-1.960784,Null
-2.823529,-2.823529,-36.705882,-0.007843,-0.007843,-0.007843,-1.960784,-1.960784,-1.960784,Null
-2.823529,-2.823529,-36.705882,-0.007843,-0.007843,-0.007843,-1.960784,-1.960784,-1.960784,Null
-2.823529,-2.823529,-36.705882,-0.007843,-0.007843,-0.007843,-1.960784,-1.960784,-1.960784,Null
-2.823529,-2.823529,-36.705882,-0.007843,-0.007843,-0.007843,-1.960784,-1.960784,-1.960784,Null
-2.823529,-2.823529,-36.705882,-0.007843,-0.007843,-0.007843,-1.960784,-1.960784,-1.960784,Null
-2.823529,-2.823529,-36.705882,-0.007843,-0.007843,-0.007843,-1.960784,-1.960784,-1.960784,Null
-2.823529,-2.823529,-36.705882,-0.007843,-0.007843,-0.007843,-1.960784,-1.960784,-1.960784,Null
-2.823529,-2.823529,-36.705882,-0.007843,-0.007843,-0.007843,-1.960784,-1.960784,-1.960784,Null
-2.823529,-2.823529,-36.705882,-0.007843,-0.007843,-0.007843,-1.960784,-1.960784,-1.960784,Null
-2.823529,-2.823529,-36.705882,-0.007843,-0.007843,-0.007843,-1.960784,-1.960784,-1.960784,Null
-2.823529,-2.823529,-36.705882,-0.007843,-0.007843,-0.007843,-1.960784,-1.960784,-1.960784,Null
-2.823529,-2.823529,-36.705882,-0.007843,-0.007843,-0.007843,-1.960784,-1.960784,-1.960784,Null
-2.823529,-2.823529,-36.705882,-0.007843,-0.007843,-0.007843,-1.960784,-1.960784,-1.960784,Null
-2.823529,-2.823529,-36.705882,-0.007843,-0.007843,-0.007843,-1.960784,-1.960784,-1.960784,Null
-2.823529,-2.823529,-36.705882,-0.007843,-0.007843,-0.007843,-1.960784,-1.960784,-1.960784,Null
-2.823529,-2.823529,-36.705882,-0.007843,-0.007843,-0.007843,-1.960784,-1.960784,-1.960784,Null
-2.823529,-2.823529,-36.705882,-0.007843,-0.007843,-0.007843,-1.960784,-1.960784,-1.960784,Null
-2.823529,-2.823529,-36.705882,0.007843,0.007843,-0.023529,-5.882353,-1.960784,-1.960784,Null
-2.823529,-2.823529,-38.117647,-0.007843,-0.007843,-0.023529,-1.960784,-1.960784,-1.960784,Null
-2.823529,-2.823529,-38.117647,-0.007843,-0.007843,-0.023529,-1.960784,-1.960784,-1.960784,Null
-2.823529,-2.823529,-38.117647,-0.007843,-0.007843,-0.007843,-1.960784,-1.960784,-1.960784,Null
-2.823529,-2.823529,-38.117647,-0.007843,-0.007843,-0.007843,-1.960784,-1.960784,-1.960784,Null
-2.823529,-2.823529,-38.117647,-0.007843,0.007843,-0.007843,-1.960784,-1.960784,-1.960784,Null
-2.823529,-2.823529,-38.117647,-0.007843,-0.007843,-0.007843,-1.960784,-1.960784,-1.960784,Null
-2.823529,-2.823529,-38.117647,-0.007843,-0.007843,-0.007843,-1.960784,-1.960784,-1.960784,Null
-2.823529,-2.823529,-38.117647,-0.007843,-0.007843,-0.007843,-1.960784,-1.960784,-1.960784,Null
-2.823529,-2.823529,-38.117647,-0.007843,-0.007843,-0.007843,-1.960784,-1.960784,-1.960784,Null
-2.823529,-2.823529,-38.117647,-0.007843,-0.007843,-0.007843,-1.960784,-1.960784,-1.960784,Null
-2.823529,-2.823529,-38.117647,-0.007843,-0.007843,-0.007843,-1.960784,-1.960784,-1.960784,Null
-2.823529,-2.823529,-38.117647,-0.007843,-0.007843,-0.007843,-1.960784,-1.960784,-1.960784,Null
-2.823529,-2.823529,-38.117647,-0.007843,-0.007843,-0.007843,-1.960784,-1.960784,-1.960784,Null
-2.823529,-2.823529,-38.117647,-0.007843,-0.007843,-0.007843,-1.960784,-1.960784,-1.960784,Null
-2.823529,-2.823529,-38.117647,-0.007843,0.007843,-0.007843,-1.960784,-1.960784,-1.960784,Null
-2.823529,-2.823529,-38.117647,-0.007843,-0.007843,-0.007843,-1.960784,-1.960784,-1.960784,Null
-2.823529,-2.823529,-38.117647,-0.007843,0.007843,-0.007843,-1.960784,-1.960784,-1.960784,Null
-2.823529,-2.823529,-38.117647,-0.007843,-0.007843,-0.007843,-1.960784,-1.960784,-1.960784,Null
-2.823529,-2.823529,-38.117647,-0.007843,-0.007843,-0.007843,-1.960784,-1.960784,-1.960784,Null
-2.823529,-2.823529,-38.117647,-0.007843,-0.007843,0.007843,-1.960784,-1.960784,-1.960784,Null
-2.823529,-2.823529,-38.117647,-0.007843,-0.007843,-0.007843,-1.960784,-1.960784,-1.960784,Null
-2.823529,-2.823529,-38.117647,-0.007843,-0.007843,-0.007843,-1.960784,-1.960784,-1.960784,Null
-2.823529,-2.823529,-38.117647,-0.007843,-0.007843,-0.007843,-1.960784,-1.960784,-1.960784,Null
-2.823529,-2.823529,-38.117647,-0.007843,-0.007843,-0.007843,-1.960784,-1.960784,-1.960784,Null
-2.823529,-2.823529,-38.117647,-0.007843,-0.007843,-0.007843,-1.960784,-1.960784,-1.960784,Null
-2.823529,-2.823529,-38.117647,-0.007843,0.007843,-0.054902,-1.960784,-1.960784,-1.960784,Null
-2.823529,-2.823529,-39.529412,-0.023529,-0.023529,-0.007843,-1.960784,-1.960784,-1.960784,Null
-2.823529,-2.823529,-39.529412,-0.007843,-0.007843,-0.023529,-1.960784,-1.960784,-1.960784,Null
-2.823529,-2.823529,-39.529412,-0.007843,-0.007843,-0.007843,-1.960784,-1.960784,-1.960784,Null
-2.823529,-2.823529,-39.529412,-0.007843,-0.007843,-0.007843,-1.960784,-1.960784,-1.960784,3
-2.823529,-2.823529,-39.529412,-0.007843,-0.007843,-0.007843,-1.960784,-1.960784,-1.960784,3
-2.823529,-2.823529,-39.529412,-0.007843,-0.007843,-0.007843,-1.960784,-1.960784,-1.960784,3
-2.823529,-2.823529,-39.529412,-0.007843,-0.007843,-0.007843,-1.960784,-1.960784,-1.960784,3
-2.823529,-2.823529,-39.529412,-0.007843,-0.007843,-0.007843,-1.960784,-1.960784,-1.960784,3
-2.823529,-2.823529,-39.529412,-0.007843,-0.007843,-0.007843,-1.960784,-1.960784,-1.960784,3
-2.823529,-2.823529,-39.529412,-0.007843,-0.007843,-0.007843,-1.960784,-1.960784,-1.960784,3
-2.823529,-2.823529,-39.529412,-0.007843,-0.007843,-0.007843,-1.960784,-1.960784,-1.960784,3
-2.823529,-2.823529,-39.529412,-0.007843,-0.007843,-0.007843,-1.960784,-1.960784,-1.960784,3
-2.823529,-2.823529,-39.529412,-0.007843,-0.007843,-0.007843,-1.960784,-1.960784,-1.960784,3
-2.823529,-2.823529,-39.529412,-0.007843,-0.007843,-0.007843,-1.960784,-1.960784,-1.960784,3
-2.823529,-2.823529,-39.529412,-0.007843,-0.007843,-0.007843,-1.960784,-1.960784,-1.960784,3
-2.823529,-2.823529,-39.529412,-0.007843,-0.007843,-0.007843,-1.960784,-1.960784,-1.960784,3
-2.823529,-2.823529,-39.529412,-0.007843,-0.007843,-0.007843,-1.960784,-1.960784,-1.960784,3
-2.823529,-2.823529,-39.529412,-0.007843,-0.007843,-0.007843,-1.960784,-1.960784,-1.960784,3
-2.823529,-2.823529,-39.529412,-0.007843,-0.007843,-0.007843,-1.960784,-1.960784,-1.960784,3
-2.823529,-2.823529,-39.529412,-0.007843,-0.007843,-0.007843,-1.960784,-1.960784,-1.960784,3
-2.823529,-2.823529,-39.529412,-0.007843,-0.007843,-0.007843,-1.960784,-1.960784,-1.960784,3
-2.823529,-2.823529,-39.529412,-0.007843,0.007843,-0.007843,-1.960784,-1.960784,-1.960784,3
-2.823529,-2.823529,-39.529412,-0.007843,-0.007843,-0.007843,-1.960784,-1.960784,-1.960784,3
-2.823529,-2.823529,-39.529412,-0.007843,-0.007843,-0.007843,-1.960784,-1.960784,-1.960784,3
-2.823529,-2.823529,-39.529412,-0.007843,-0.007843,-0.007843,-1.960784,-1.960784,-1.960784,3
-2.823529,-2.823529,-40.941176,-0.007843,0.007843,-0.007843,-1.960784,-1.960784,-1.960784,3
-2.823529,-2.823529,-40.941176,-0.007843,-0.007843,-0.007843,-1.960784,-1.960784,-1.960784,3
-2.823529,-2.823529,-40.941176,-0.007843,-0.007843,-0.007843,-1.960784,-1.960784,-1.960784,3
-2.823529,-2.823529,-40.941176,-0.007843,0.007843,-0.007843,-1.960784,-1.960784,-1.960784,3
-2.823529,-2.823529,-40.941176,-0.007843,-0.007843,-0.007843,-1.960784,-1.960784,-1.960784,3
-2.823529,-2.823529,-40.941176,-0.007843,-0.007843,-0.007843,-1.960784,-1.960784,-1.960784,3
-2.823529,-2.823529,-40.941176,-0.007843,-0.007843,-0.007843,-1.960784,-1.960784,-5.882353,3
-2.823529,-2.823529,-40.941176,-0.007843,-0.007843,-0.007843,-1.960784,-1.960784,-5.882353,3
-2.823529,-2.823529,-40.941176,-0.007843,-0.007843,-0.007843,-1.960784,-1.960784,-1.960784,3
-2.823529,-2.823529,-40.941176,-0.007843,-0.007843,-0.007843,-1.960784,-1.960784,-1.960784,3
-2.823529,-2.823529,-40.941176,-0.007843,-0.007843,-0.007843,-1.960784,-1.960784,-1.960784,3
-2.823529,-2.823529,-40.941176,-0.007843,-0.007843,-0.007843,-1.960784,-1.960784,-1.960784,3
-2.823529,-2.823529,-40.941176,-0.007843,-0.007843,-0.007843,-1.960784,-1.960784,-1.960784,3
-2.823529,-2.823529,-40.941176,-0.007843,-0.007843,-0.007843,-1.960784,-1.960784,-1.960784,3
-2.823529,-2.823529,-40.941176,-0.007843,-0.007843,-0.007843,-1.960784,-1.960784,-1.960784,3
-2.823529,-2.823529,-40.941176,-0.007843,-0.007843,-0.007843,-1.960784,-1.960784,-5.882353,3
-2.823529,-2.823529,-40.941176,-0.007843,-0.007843,-0.007843,-1.960784,-1.960784,-1.960784,3
-2.823529,-2.823529,-40.941176,-0.007843,-0.007843,-0.007843,-1.960784,-1.960784,-1.960784,3
-2.823529,-2.823529,-40.941176,-0.007843,-0.007843,-0.007843,-1.960784,-1.960784,-1.960784,3
-2.823529,-2.823529,-40.941176,-0.007843,-0.007843,-0.007843,-1.960784,-1.960784,-1.960784,3
-2.823529,-2.823529,-40.941176,-0.007843,-0.007843,-0.007843,-1.960784,-1.960784,-1.960784,3
-2.823529,-2.823529,-40.941176,-0.007843,-0.007843,-0.007843,-1.960784,-1.960784,-1.960784,3
-2.823529,-2.823529,-40.941176,-0.007843,-0.007843,-0.007843,-1.960784,-1.960784,-1.960784,3
-2.823529,-2.823529,-40.941176,-0.007843,-0.007843,-0.007843,-1.960784,-1.960784,-1.960784,3
-2.823529,-2.823529,-40.941176,-0.007843,-0.007843,-0.007843,-1.960784,-1.960784,-1.960784,3
-2.823529,-2.823529,-42.352941,-0.007843,-0.007843,-0.007843,-1.960784,-1.960784,-1.960784,3
-2.823529,-2.823529,-42.352941,-0.007843,-0.007843,-0.007843,-1.960784,-1.960784,-1.960784,3
-2.823529,-2.823529,-42.352941,-0.007843,-0.007843,-0.007843,-1.960784,-1.960784,-1.960784,3
-2.823529,-2.823529,-42.352941,-0.007843,-0.007843,-0.007843,-1.960784,-1.960784,-1.960784,3
-2.823529,-2.823529,-42.352941,-0.007843,-0.007843,-0.007843,-1.960784,-1.960784,-1.960784,3
-2.823529,-2.823529,-42.352941,-0.007843,-0.007843,-0.007843,-1.960784,-1.960784,-1.960784,3
-2.823529,-2.823529,-42.352941,-0.007843,-0.007843,-0.007843,-1.960784,-1.960784,-1.960784,3
-2.823529,-2.823529,-42.352941,-0.007843,-0.007843,0.007843,-1.960784,-1.960784,-1.960784,3
-2.823529,-2.823529,-42.352941,-0.007843,-0.007843,-0.007843,-1.960784,-1.960784,-1.960784,3
-2.823529,-2.823529,-42.352941,-0.007843,-0.007843,-0.007843,-1.960784,-1.960784,-1.960784,3
-2.823529,-2.823529,-42.352941,-0.007843,-0.007843,-0.007843,-1.960784,-1.960784,-1.960784,3
-2.823529,-2.823529,-42.352941,-0.007843,-0.007843,-0.007843,-1.960784,-1.960784,-1.960784,3
-2.823529,-2.823529,-42.352941,-0.023529,0.023529,-0.070588,-1.960784,-1.960784,-1.960784,3
-2.823529,-2.823529,-42.352941,0.039216,-0.023529,-0.039216,-1.960784,-1.960784,9.803922,3
-2.823529,-2.823529,-40.941176,0.023529,-0.007843,-0.023529,-1.960784,1.960784,9.803922,3
-2.823529,-2.823529,-40.941176,-0.007843,0.007843,-0.007843,-1.960784,-1.960784,-1.960784,3
-2.823529,-2.823529,-42.352941,-0.007843,-0.007843,-0.007843,-1.960784,-1.960784,-1.960784,3
-2.823529,-2.823529,-42.352941,-0.023529,-0.023529,-0.007843,-1.960784,-1.960784,-1.960784,3
-2.823529,-2.823529,-42.352941,-0.007843,-0.007843,-0.023529,-1.960784,-1.960784,-1.960784,3
-2.823529,-2.823529,-42.352941,-0.007843,-0.007843,-0.007843,-1.960784,-1.960784,-1.960784,3
-2.823529,-2.823529,-40.941176,-0.039216,0.054902,0.054902,-1.960784,-1.960784,5.882353,3
-2.823529,0,-40.941176,-0.070588,0.007843,0.039216,-1.960784,-1.960784,9.803922,3
-2.823529,0,-40.941176,-0.101961,-0.023529,0.086275,-1.960784,-5.882353,13.72549,3
-2.823529,-2.823529,-40.941176,-0.086275,-0.039216,0.023529,-1.960784,-5.882353,5.882353,3
-2.823529,-2.823529,-39.529412,-0.054902,0.007843,0.039216,-1.960784,-9.803922,9.803922,3
-2.823529,-2.823529,-39.529412,0.054902,0.023529,-0.054902,-1.960784,-1.960784,9.803922,3
-2.823529,-2.823529,-39.529412,0.054902,0.007843,-0.133333,-1.960784,5.882353,13.72549,3
-2.823529,-2.823529,-38.117647,-0.054902,-0.007843,0.070588,1.960784,-5.882353,17.647059,3
-2.823529,-2.823529,-38.117647,0.054902,-0.054902,0.415686,-1.960784,1.960784,29.411765,3
-2.823529,-2.823529,-36.705882,-0.321569,-0.086275,0.462745,1.960784,-21.568627,33.333333,3
-2.823529,-2.823529,-35.294118,-0.054902,0.023529,-0.196078,1.960784,-1.960784,17.647059,3
-2.823529,-2.823529,-35.294118,0.070588,0.086275,-0.290196,1.960784,-5.882353,13.72549,3
-2.823529,-2.823529,-33.882353,0.039216,-0.023529,-0.070588,-5.882353,-9.803922,21.568627,3
-2.823529,-2.823529,-33.882353,-0.27451,-0.023529,0.133333,-5.882353,-9.803922,17.647059,3
-2.823529,-2.823529,-32.470588,0.054902,-0.054902,0.180392,-1.960784,17.647059,13.72549,3
-2.823529,-2.823529,-32.470588,0.086275,-0.007843,-0.211765,-1.960784,-5.882353,9.803922,3
-2.823529,-2.823529,-32.470588,-0.039216,-0.023529,0.039216,-5.882353,-5.882353,5.882353,3
-2.823529,-2.823529,-32.470588,-0.337255,0.039216,0.133333,1.960784,-13.72549,9.803922,3
-2.823529,-2.823529,-32.470588,-0.305882,0.023529,0.227451,-5.882353,-21.568627,9.803922,3
-2.823529,-2.823529,-31.058824,-0.117647,0.007843,0.164706,-1.960784,1.960784,5.882353,3
-2.823529,-2.823529,-31.058824,0.133333,-0.023529,-0.164706,-1.960784,13.72549,5.882353,3
-2.823529,-2.823529,-31.058824,0.086275,-0.023529,-0.101961,-1.960784,-5.882353,1.960784,3
-2.823529,-2.823529,-31.058824,-0.133333,0.070588,-0.243137,-1.960784,1.960784,5.882353,3
-2.823529,0,-31.058824,-0.337255,0.039216,-0.14902,-1.960784,-5.882353,13.72549,3
-2.823529,0,-29.647059,0.039216,-0.086275,0.054902,-1.960784,5.882353,-1.960784,3
-2.823529,0,-31.058824,-0.007843,0.007843,-0.007843,-1.960784,1.960784,-1.960784,3
-2.823529,0,-31.058824,-0.023529,-0.007843,0.007843,-1.960784,-1.960784,-1.960784,3
-2.823529,0,-31.058824,-0.023529,-0.007843,0.007843,-1.960784,-1.960784,-1.960784,3
-2.823529,0,-31.058824,-0.007843,-0.007843,0.007843,-1.960784,-1.960784,-1.960784,3
-2.823529,0,-31.058824,-0.023529,-0.007843,-0.007843,-1.960784,-1.960784,-1.960784,3
-2.823529,0,-31.058824,-0.007843,0.007843,0.007843,-1.960784,-1.960784,-1.960784,3
-2.823529,0,-31.058824,-0.007843,-0.007843,-0.007843,-1.960784,-1.960784,-1.960784,3
-2.823529,0,-31.058824,-0.007843,-0.007843,-0.007843,-1.960784,-1.960784,-1.960784,3
-2.823529,0,-31.058824,-0.007843,-0.007843,-0.007843,-1.960784,-1.960784,-1.960784,3
-2.823529,0,-31.058824,-0.007843,-0.007843,-0.007843,-1.960784,-1.960784,-1.960784,3
-2.823529,0,-31.058824,-0.007843,-0.007843,-0.007843,-1.960784,-1.960784,-1.960784,3
-2.823529,0,-31.058824,-0.007843,-0.007843,-0.007843,-1.960784,-1.960784,-1.960784,3
-2.823529,0,-31.058824,-0.007843,-0.007843,-0.007843,-1.960784,-1.960784,-1.960784,3
-2.823529,0,-31.058824,-0.007843,0.007843,-0.007843,-1.960784,-1.960784,-1.960784,3
-2.823529,0,-31.058824,-0.007843,-0.007843,-0.007843,-1.960784,-1.960784,-1.960784,3
-2.823529,0,-31.058824,-0.007843,-0.007843,-0.007843,-1.960784,-1.960784,-1.960784,3
-2.823529,0,-31.058824,-0.007843,-0.007843,0.007843,-1.960784,-1.960784,-1.960784,3
-2.823529,0,-31.058824,-0.007843,-0.007843,0.007843,-1.960784,-1.960784,-1.960784,3
-2.823529,0,-31.058824,-0.007843,-0.007843,-0.007843,-1.960784,-1.960784,-1.960784,3
-2.823529,0,-31.058824,-0.007843,-0.007843,-0.007843,-1.960784,-1.960784,-1.960784,3
-2.823529,0,-31.058824,-0.007843,-0.007843,-0.007843,-1.960784,-1.960784,-1.960784,3
-2.823529,0,-31.058824,-0.007843,-0.007843,-0.007843,-1.960784,-1.960784,-1.960784,3
-2.823529,0,-31.058824,-0.007843,-0.007843,-0.007843,-1.960784,-1.960784,-1.960784,3
-2.823529,0,-31.058824,-0.007843,-0.007843,-0.007843,-1.960784,-1.960784,-1.960784,3
-2.823529,0,-31.058824,-0.007843,-0.007843,-0.007843,-1.960784,-1.960784,-1.960784,3
-2.823529,0,-32.470588,-0.007843,-0.007843,-0.007843,-1.960784,-1.960784,-1.960784,3
-2.823529,0,-32.470588,-0.007843,-0.007843,-0.007843,-1.960784,-1.960784,-1.960784,3
-2.823529,0,-32.470588,-0.007843,0.007843,-0.007843,-1.960784,-1.960784,-1.960784,3
-2.823529,0,-32.470588,-0.007843,0.007843,-0.007843,-1.960784,-1.960784,-1.960784,3
-2.823529,0,-32.470588,-0.007843,0.007843,-0.007843,-1.960784,-1.960784,-5.882353,3
-2.823529,0,-32.470588,-0.007843,-0.007843,-0.007843,-1.960784,-1.960784,-1.960784,3
-2.823529,0,-32.470588,-0.007843,-0.007843,-0.007843,-1.960784,-1.960784,-1.960784,3
-2.823529,0,-32.470588,-0.007843,-0.007843,-0.007843,-1.960784,-1.960784,-1.960784,3
-2.823529,0,-32.470588,-0.007843,-0.007843,0.007843,-1.960784,-1.960784,-1.960784,3
-2.823529,0,-32.470588,-0.007843,-0.007843,-0.007843,-1.960784,-1.960784,-1.960784,3
-2.823529,0,-32.470588,-0.007843,-0.007843,-0.007843,-1.960784,-1.960784,-1.960784,3
-2.823529,0,-32.470588,-0.007843,-0.007843,-0.007843,-1.960784,-1.960784,-1.960784,3
-2.823529,0,-32.470588,-0.007843,-0.007843,-0.007843,-1.960784,-1.960784,-1.960784,3
-2.823529,0,-32.470588,-0.007843,0.007843,-0.007843,-1.960784,-1.960784,-1.960784,3
-2.823529,0,-32.470588,-0.007843,-0.007843,-0.007843,-1.960784,-1.960784,-1.960784,3
-2.823529,0,-32.470588,-0.007843,-0.007843,-0.007843,-1.960784,-1.960784,-1.960784,3
-2.823529,0,-32.470588,-0.007843,-0.007843,-0.007843,-1.960784,-1.960784,-1.960784,3
-2.823529,0,-32.470588,-0.007843,0.007843,-0.007843,-1.960784,-1.960784,-5.882353,3
-2.823529,0,-32.470588,-0.007843,-0.007843,-0.007843,-1.960784,-1.960784,-1.960784,3
-2.823529,0,-32.470588,-0.007843,-0.007843,-0.007843,-1.960784,-1.960784,-1.960784,3
-2.823529,0,-32.470588,-0.007843,-0.007843,-0.007843,-1.960784,-1.960784,-1.960784,3
-2.823529,0,-32.470588,-0.007843,-0.007843,-0.007843,-1.960784,-1.960784,-1.960784,3
-2.823529,0,-32.470588,-0.007843,-0.007843,-0.007843,-1.960784,-1.960784,-1.960784,3
-2.823529,0,-32.470588,-0.007843,0.007843,-0.007843,-1.960784,-1.960784,-1.960784,3
-2.823529,0,-33.882353,-0.007843,0.007843,-0.007843,-1.960784,-1.960784,-1.960784,3
-2.823529,0,-33.882353,-0.007843,-0.007843,-0.007843,-1.960784,-1.960784,-5.882353,3
-2.823529,0,-33.882353,-0.007843,-0.007843,-0.007843,-1.960784,-1.960784,-1.960784,3
-2.823529,0,-33.882353,-0.007843,-0.007843,-0.007843,-1.960784,-1.960784,-1.960784,3
-2.823529,0,-33.882353,-0.007843,-0.007843,-0.007843,-1.960784,-1.960784,-1.960784,3
-2.823529,0,-33.882353,-0.007843,-0.007843,-0.007843,-1.960784,-1.960784,-1.960784,3
-2.823529,0,-33.882353,-0.007843,-0.007843,-0.007843,-1.960784,-1.960784,-1.960784,3
-2.823529,0,-33.882353,-0.007843,-0.007843,-0.007843,-1.960784,-1.960784,-1.960784,3
-2.823529,0,-33.882353,-0.007843,-0.007843,-0.023529,-1.960784,-1.960784,-1.960784,3
-2.823529,0,-33.882353,-0.007843,-0.007843,-0.007843,-1.960784,-1.960784,-1.960784,3
-2.823529,0,-33.882353,-0.023529,-0.007843,-0.007843,-1.960784,-1.960784,-1.960784,3
-2.823529,0,-33.882353,-0.007843,0.007843,-0.007843,-1.960784,-1.960784,-1.960784,3
-2.823529,0,-33.882353,-0.007843,-0.007843,-0.007843,-1.960784,-1.960784,-1.960784,3
-2.823529,0,-33.882353,-0.007843,-0.007843,-0.007843,-1.960784,-1.960784,-1.960784,3
-2.823529,0,-33.882353,-0.007843,-0.007843,-0.007843,-1.960784,-1.960784,-1.960784,3
-2.823529,0,-33.882353,-0.007843,-0.007843,-0.007843,-1.960784,-1.960784,-1.960784,3
-2.823529,0,-33.882353,-0.007843,-0.007843,-0.007843,-1.960784,-1.960784,-1.960784,3
-2.823529,0,-33.882353,-0.007843,-0.007843,-0.007843,-1.960784,-1.960784,-1.960784,3
-2.823529,0,-33.882353,-0.007843,-0.007843,-0.023529,-1.960784,-1.960784,-1.960784,3
-2.823529,0,-33.882353,-0.007843,-0.007843,-0.007843,-1.960784,-1.960784,-1.960784,3
-2.823529,0,-33.882353,-0.007843,-0.007843,-0.007843,-1.960784,-1.960784,-1.960784,3
-2.823529,0,-33.882353,-0.007843,-0.007843,-0.007843,-1.960784,-1.960784,-1.960784,3
-2.823529,0,-33.882353,-0.007843,-0.007843,-0.007843,-1.960784,-1.960784,-1.960784,3
-2.823529,0,-33.882353,-0.007843,-0.007843,-0.007843,-1.960784,-1.960784,-1.960784,3
-2.823529,0,-33.882353,-0.007843,-0.007843,-0.007843,-1.960784,-1.960784,-1.960784,3
-2.823529,0,-33.882353,-0.007843,-0.007843,-0.007843,-1.960784,-1.960784,-1.960784,3
-2.823529,0,-35.294118,-0.007843,-0.007843,-0.007843,-1.960784,-1.960784,-1.960784,3
-2.823529,0,-35.294118,-0.007843,0.007843,-0.007843,-1.960784,-1.960784,-1.960784,3
-2.823529,0,-35.294118,-0.007843,-0.007843,-0.007843,-1.960784,-1.960784,-1.960784,3
-2.823529,0,-35.294118,-0.007843,-0.007843,-0.007843,-1.960784,-1.960784,-1.960784,3
-2.823529,0,-35.294118,-0.007843,-0.007843,-0.007843,-1.960784,-1.960784,-1.960784,3
-2.823529,0,-35.294118,-0.007843,-0.007843,-0.007843,-1.960784,-1.960784,-1.960784,3
-2.823529,0,-35.294118,-0.007843,-0.007843,-0.007843,-1.960784,-1.960784,-1.960784,3
-2.823529,0,-35.294118,-0.007843,-0.007843,-0.007843,-1.960784,-1.960784,-1.960784,3
-2.823529,0,-35.294118,-0.007843,-0.007843,-0.007843,-1.960784,-1.960784,-1.960784,3
-2.823529,0,-35.294118,-0.007843,-0.007843,-0.007843,-1.960784,-1.960784,-1.960784,3
-2.823529,0,-35.294118,-0.007843,-0.007843,-0.007843,-1.960784,-1.960784,-1.960784,3
-2.823529,0,-35.294118,-0.007843,-0.007843,-0.007843,-1.960784,-1.960784,-1.960784,3
-2.823529,-2.823529,-35.294118,-0.007843,-0.007843,-0.007843,-1.960784,-1.960784,-1.960784,3
-2.823529,-2.823529,-35.294118,-0.007843,-0.007843,-0.007843,-1.960784,-1.960784,-1.960784,3
-2.823529,-2.823529,-35.294118,-0.007843,-0.007843,-0.007843,-1.960784,-1.960784,-1.960784,3
-2.823529,-2.823529,-35.294118,-0.007843,0.007843,-0.007843,-1.960784,-1.960784,-1.960784,3
-2.823529,-2.823529,-35.294118,-0.007843,-0.007843,0.007843,-1.960784,-1.960784,-5.882353,3
-2.823529,-2.823529,-35.294118,-0.007843,-0.007843,-0.007843,-1.960784,-1.960784,-1.960784,3
-2.823529,-2.823529,-35.294118,-0.007843,-0.007843,-0.007843,-1.960784,-1.960784,-1.960784,3
-2.823529,-2.823529,-35.294118,-0.007843,-0.007843,-0.007843,-1.960784,-1.960784,-1.960784,3
-2.823529,-2.823529,-35.294118,-0.007843,-0.007843,-0.007843,-1.960784,-1.960784,-1.960784,3
-2.823529,-2.823529,-35.294118,-0.007843,-0.007843,-0.007843,-1.960784,-1.960784,-1.960784,3
-2.823529,-2.823529,-35.294118,-0.007843,-0.007843,-0.007843,-1.960784,-1.960784,-1.960784,3
-2.823529,-2.823529,-35.294118,-0.007843,-0.007843,-0.007843,-1.960784,-1.960784,-1.960784,3
-2.823529,-2.823529,-35.294118,-0.007843,-0.007843,-0.007843,-1.960784,-1.960784,-1.960784,3
-2.823529,-2.823529,-36.705882,-0.007843,0.007843,-0.007843,-1.960784,-1.960784,-1.960784,3
-2.823529,-2.823529,-36.705882,-0.007843,-0.007843,-0.007843,-1.960784,-1.960784,-1.960784,3
-2.823529,-2.823529,-36.705882,-0.007843,-0.007843,-0.007843,-1.960784,-1.960784,-1.960784,3
-2.823529,-2.823529,-36.705882,-0.007843,-0.007843,-0.007843,-1.960784,-1.960784,-1.960784,3
-2.823529,-2.823529,-36.705882,-0.007843,-0.007843,-0.007843,-1.960784,-1.960784,-1.960784,3
-2.823529,-2.823529,-36.705882,-0.007843,-0.007843,-0.007843,-1.960784,-1.960784,-1.960784,3
-2.823529,-2.823529,-36.705882,-0.007843,-0.007843,-0.007843,-1.960784,-1.960784,-1.960784,3
-2.823529,-2.823529,-36.705882,-0.007843,-0.007843,-0.007843,-1.960784,-1.960784,-1.960784,3
-2.823529,-2.823529,-36.705882,-0.007843,-0.007843,-0.007843,-1.960784,-1.960784,-1.960784,3
-2.823529,-2.823529,-36.705882,-0.007843,-0.007843,-0.007843,-1.960784,-1.960784,-1.960784,3
-2.823529,-2.823529,-36.705882,-0.007843,-0.007843,-0.007843,-1.960784,-1.960784,-1.960784,3
-2.823529,-2.823529,-36.705882,-0.007843,-0.007843,-0.007843,-1.960784,-1.960784,-1.960784,3
-2.823529,-2.823529,-36.705882,-0.007843,-0.007843,-0.007843,-1.960784,-1.960784,-1.960784,3
-2.823529,-2.823529,-36.705882,-0.007843,-0.007843,-0.007843,-1.960784,-1.960784,-1.960784,3
-2.823529,-2.823529,-36.705882,-0.007843,-0.007843,-0.007843,-1.960784,-1.960784,-1.960784,3
-2.823529,-2.823529,-36.705882,-0.007843,-0.007843,-0.007843,-1.960784,-1.960784,-1.960784,3
-2.823529,-2.823529,-36.705882,-0.007843,-0.007843,-0.007843,-1.960784,-1.960784,-1.960784,3
-2.823529,-2.823529,-36.705882,-0.007843,-0.007843,-0.007843,-1.960784,-1.960784,-1.960784,3
-2.823529,-2.823529,-36.705882,-0.007843,0.007843,-0.007843,-1.960784,-1.960784,-1.960784,3
-2.823529,-2.823529,-36.705882,-0.007843,-0.007843,-0.007843,-1.960784,-1.960784,-1.960784,3
-2.823529,-2.823529,-36.705882,-0.007843,-0.007843,-0.007843,-1.960784,-1.960784,-1.960784,3
-2.823529,-2.823529,-36.705882,-0.007843,-0.007843,-0.007843,-1.960784,-1.960784,-1.960784,3
-2.823529,-2.823529,-36.705882,-0.007843,-0.007843,-0.007843,-1.960784,-1.960784,-1.960784,3
-2.823529,-2.823529,-36.705882,-0.007843,-0.007843,-0.007843,-1.960784,-1.960784,-1.960784,3
-2.823529,-2.823529,-36.705882,-0.007843,-0.007843,-0.007843,-1.960784,-1.960784,-1.960784,3
-2.823529,-2.823529,-38.117647,-0.007843,-0.007843,-0.007843,-1.960784,-1.960784,-1.960784,3
-2.823529,-2.823529,-38.117647,-0.007843,-0.007843,-0.007843,-1.960784,-1.960784,-1.960784,3
-2.823529,-2.823529,-38.117647,-0.007843,-0.007843,-0.007843,-1.960784,-1.960784,-5.882353,3
-2.823529,-2.823529,-38.117647,0.007843,-0.007843,-0.023529,-1.960784,-1.960784,-1.960784,3
-2.823529,-2.823529,-38.117647,-0.054902,0.007843,-0.007843,-1.960784,-1.960784,-1.960784,3
-2.823529,-2.823529,-38.117647,-0.023529,0.007843,-0.007843,-1.960784,-1.960784,-1.960784,3
-2.823529,0,-38.117647,0.007843,-0.007843,-0.007843,-1.960784,-1.960784,-1.960784,3
-2.823529,-2.823529,-38.117647,-0.039216,0.007843,0.007843,-5.882353,-5.882353,-5.882353,3
-2.823529,0,-38.117647,-0.039216,-0.023529,0.070588,-1.960784,1.960784,-1.960784,3
-2.823529,-2.823529,-38.117647,0.039216,-0.039216,-0.101961,-9.803922,-5.882353,-21.568627,3
-2.823529,-2.823529,-38.117647,-0.039216,0.039216,0.023529,-1.960784,-1.960784,-1.960784,3
-2.823529,-2.823529,-38.117647,-0.086275,0.007843,0.054902,-1.960784,-1.960784,-1.960784,3
-2.823529,-2.823529,-38.117647,-0.023529,0.007843,-0.007843,-1.960784,-1.960784,-1.960784,3
-2.823529,-2.823529,-39.529412,-0.054902,-0.007843,0.101961,-5.882353,-13.72549,-13.72549,3
-2.823529,-2.823529,-39.529412,-0.086275,-0.007843,0.039216,-1.960784,-5.882353,-5.882353,3
-2.823529,-2.823529,-39.529412,-0.007843,0.007843,-0.007843,-1.960784,-1.960784,-13.72549,3
-2.823529,-2.823529,-39.529412,-0.007843,0.101961,-0.007843,-1.960784,-1.960784,-17.647059,3
-2.823529,-2.823529,-40.941176,0.070588,0.054902,-0.039216,-5.882353,-1.960784,-29.411765,3
-2.823529,-2.823529,-42.352941,-0.133333,-0.039216,-0.007843,-5.882353,-9.803922,-33.333333,3
-2.823529,-2.823529,-42.352941,0.039216,0.039216,-0.070588,-5.882353,1.960784,-25.490196,3
-2.823529,-2.823529,-43.764706,0.27451,0.164706,-0.431373,-1.960784,-9.803922,-17.647059,3
-2.823529,-4.235294,-43.764706,0.180392,0.054902,-0.180392,-1.960784,1.960784,-21.568627,3
-2.823529,-4.235294,-43.764706,0.352941,-0.258824,0.352941,1.960784,-1.960784,-9.803922,3
-2.823529,-4.235294,-43.764706,-0.603922,0.101961,0.964706,1.960784,-25.490196,-5.882353,3
-2.823529,-2.823529,-43.764706,0.4,-0.101961,-0.196078,-1.960784,41.176471,-5.882353,3
-2.823529,-5.647059,-45.176471,0.682353,-0.101961,-0.823529,-1.960784,-29.411765,-5.882353,3
-2.823529,-5.647059,-45.176471,0.352941,0.023529,0.086275,-1.960784,-13.72549,-9.803922,3
-2.823529,-7.058824,-45.176471,-0.14902,0.321569,-0.462745,-1.960784,-37.254902,1.960784,3
0,-5.647059,-45.176471,-0.180392,0.117647,-0.713725,5.882353,13.72549,-5.882353,3
0,-5.647059,-45.176471,0.619608,-0.180392,-0.337255,-1.960784,13.72549,-5.882353,3
0,-5.647059,-45.176471,0.054902,0.101961,-0.415686,-1.960784,5.882353,-13.72549,3
0,-7.058824,-45.176471,0.290196,-0.211765,-0.180392,1.960784,-9.803922,-1.960784,3
0,-7.058824,-45.176471,0.086275,-0.039216,0.023529,1.960784,-13.72549,9.803922,3
0,-7.058824,-45.176471,-0.054902,-0.101961,0.039216,-1.960784,-17.647059,9.803922,3
0,-7.058824,-45.176471,-0.14902,-0.007843,0.164706,-1.960784,-1.960784,-1.960784,3
-2.823529,-7.058824,-45.176471,-0.14902,0.007843,0.101961,-5.882353,-1.960784,-1.960784,3
-2.823529,-7.058824,-45.176471,-0.086275,-0.007843,0.054902,-1.960784,-1.960784,-1.960784,3
-2.823529,-7.058824,-45.176471,-0.054902,-0.007843,0.023529,-1.960784,-1.960784,-1.960784,3
-2.823529,-7.058824,-45.176471,-0.023529,-0.007843,0.007843,-1.960784,-1.960784,-1.960784,3
-2.823529,-5.647059,-45.176471,-0.023529,0.007843,0.007843,-1.960784,-1.960784,-1.960784,3
-2.823529,-5.647059,-45.176471,-0.023529,-0.007843,0.007843,-1.960784,-1.960784,-1.960784,3
-2.823529,-5.647059,-45.176471,-0.023529,-0.007843,-0.007843,-1.960784,-1.960784,-1.960784,3
-2.823529,-5.647059,-45.176471,-0.007843,-0.007843,-0.007843,-1.960784,-1.960784,-1.960784,3
-2.823529,-5.647059,-45.176471,-0.023529,-0.007843,-0.007843,-1.960784,-1.960784,-1.960784,3
-2.823529,-5.647059,-45.176471,-0.007843,-0.007843,-0.007843,-1.960784,-1.960784,-1.960784,3
-2.823529,-5.647059,-45.176471,-0.007843,0.007843,-0.007843,-1.960784,-1.960784,-1.960784,3
-2.823529,-5.647059,-45.176471,-0.007843,-0.007843,-0.007843,-1.960784,-1.960784,-1.960784,3
-2.823529,-5.647059,-45.176471,-0.007843,-0.007843,-0.007843,-1.960784,-1.960784,-1.960784,3
-2.823529,-5.647059,-45.176471,-0.007843,0.007843,-0.007843,-1.960784,-1.960784,-1.960784,3
-2.823529,-5.647059,-45.176471,-0.007843,-0.007843,-0.007843,-1.960784,-1.960784,-1.960784,3
-2.823529,-5.647059,-45.176471,-0.007843,-0.007843,-0.007843,-1.960784,-1.960784,-1.960784,3
-2.823529,-5.647059,-45.176471,-0.007843,0.007843,-0.007843,-1.960784,-1.960784,-1.960784,3
-2.823529,-5.647059,-45.176471,-0.007843,-0.007843,-0.007843,-1.960784,-1.960784,-1.960784,3
-2.823529,-5.647059,-45.176471,-0.007843,-0.007843,-0.007843,-1.960784,-1.960784,-1.960784,3
-2.823529,-5.647059,-46.588235,-0.007843,-0.007843,-0.007843,-1.960784,-1.960784,-1.960784,3
-2.823529,-5.647059,-46.588235,-0.007843,-0.007843,-0.007843,-1.960784,-1.960784,-1.960784,3
-2.823529,-5.647059,-46.588235,-0.007843,0.007843,-0.007843,-1.960784,-1.960784,-1.960784,3
-2.823529,-5.647059,-46.588235,-0.007843,-0.007843,-0.007843,-1.960784,-1.960784,-1.960784,3
-2.823529,-5.647059,-46.588235,-0.007843,-0.007843,-0.007843,-1.960784,-1.960784,-1.960784,3
-2.823529,-5.647059,-46.588235,-0.007843,-0.007843,-0.007843,-1.960784,-1.960784,-1.960784,3
-2.823529,-4.235294,-46.588235,-0.007843,-0.007843,-0.007843,-1.960784,-1.960784,-1.960784,3
-2.823529,-4.235294,-46.588235,-0.007843,-0.007843,-0.007843,-1.960784,-1.960784,-1.960784,3
-2.823529,-4.235294,-46.588235,-0.007843,-0.007843,-0.007843,-1.960784,-1.960784,-1.960784,3
-2.823529,-4.235294,-46.588235,-0.007843,-0.007843,-0.007843,-1.960784,-1.960784,-1.960784,3
-2.823529,-4.235294,-46.588235,-0.007843,-0.007843,-0.007843,-1.960784,-1.960784,-1.960784,3
-2.823529,-4.235294,-46.588235,-0.007843,-0.007843,-0.007843,-1.960784,-1.960784,-1.960784,3
-2.823529,-4.235294,-46.588235,-0.007843,-0.007843,-0.007843,-1.960784,-1.960784,-1.960784,3
-2.823529,-4.235294,-46.588235,-0.007843,-0.007843,-0.007843,-1.960784,-1.960784,-1.960784,3
-2.823529,-4.235294,-46.588235,-0.007843,-0.007843,-0.007843,-1.960784,-1.960784,-1.960784,3
-2.823529,-4.235294,-46.588235,-0.007843,-0.007843,-0.007843,-1.960784,-1.960784,-1.960784,3
-2.823529,-4.235294,-46.588235,-0.007843,0.007843,-0.007843,-1.960784,-1.960784,-1.960784,3
-2.823529,-4.235294,-46.588235,-0.007843,-0.007843,-0.007843,-1.960784,-1.960784,-1.960784,3
-2.823529,-4.235294,-46.588235,-0.007843,-0.007843,-0.007843,-1.960784,-1.960784,-1.960784,3
-2.823529,-4.235294,-46.588235,-0.007843,-0.007843,-0.007843,-1.960784,-1.960784,-1.960784,3
-2.823529,-4.235294,-46.588235,-0.007843,-0.007843,-0.007843,-1.960784,-1.960784,-1.960784,3
-2.823529,-4.235294,-46.588235,-0.007843,-0.007843,-0.007843,-1.960784,-1.960784,-1.960784,3
-2.823529,-4.235294,-46.588235,-0.007843,-0.007843,-0.007843,-1.960784,-1.960784,-1.960784,3
-2.823529,-4.235294,-46.588235,-0.007843,-0.007843,-0.007843,-1.960784,-1.960784,-1.960784,3
-2.823529,-4.235294,-46.588235,-0.007843,-0.007843,-0.007843,-1.960784,-1.960784,-1.960784,3
-2.823529,-4.235294,-46.588235,-0.007843,-0.007843,-0.007843,-1.960784,-1.960784,-1.960784,3
-2.823529,-4.235294,-48,-0.007843,-0.007843,-0.007843,-1.960784,-1.960784,-1.960784,3
-2.823529,-4.235294,-48,-0.007843,0.007843,-0.007843,-1.960784,-1.960784,-1.960784,3
-2.823529,-4.235294,-48,-0.007843,-0.007843,-0.007843,-1.960784,-1.960784,-1.960784,3
-2.823529,-4.235294,-48,-0.007843,-0.007843,-0.007843,-1.960784,-1.960784,-1.960784,3
-2.823529,-4.235294,-48,-0.007843,-0.007843,-0.007843,-1.960784,-1.960784,-1.960784,3
-2.823529,-4.235294,-48,-0.007843,-0.007843,-0.007843,-1.960784,-1.960784,-1.960784,3
-2.823529,-4.235294,-48,-0.007843,-0.007843,-0.007843,-1.960784,-1.960784,-1.960784,3
-2.823529,-4.235294,-48,-0.007843,-0.007843,-0.007843,-1.960784,-1.960784,-1.960784,3
-2.823529,-4.235294,-48,-0.007843,-0.007843,-0.007843,-1.960784,-1.960784,-1.960784,3
-2.823529,-4.235294,-48,-0.007843,-0.007843,-0.007843,-1.960784,-1.960784,-1.960784,3
-2.823529,-4.235294,-48,-0.007843,-0.007843,-0.007843,-1.960784,-1.960784,-1.960784,3
-2.823529,-4.235294,-48,-0.007843,-0.007843,-0.007843,-1.960784,-1.960784,-1.960784,3
-2.823529,-4.235294,-48,-0.007843,-0.007843,-0.007843,-1.960784,-1.960784,-1.960784,3
-2.823529,-4.235294,-48,-0.007843,-0.007843,-0.007843,-1.960784,-1.960784,-1.960784,3
-2.823529,-4.235294,-48,-0.007843,-0.007843,-0.007843,-1.960784,-1.960784,-1.960784,3
-2.823529,-4.235294,-48,-0.007843,-0.007843,-0.007843,-1.960784,-1.960784,-1.960784,3
-2.823529,-4.235294,-48,-0.007843,-0.007843,-0.007843,-1.960784,-1.960784,-1.960784,3
-2.823529,-4.235294,-48,-0.007843,0.007843,-0.007843,-1.960784,-1.960784,-1.960784,3
-2.823529,-2.823529,-48,-0.007843,-0.007843,-0.007843,-1.960784,-1.960784,-1.960784,3
-2.823529,-2.823529,-48,-0.007843,-0.007843,-0.007843,-1.960784,-1.960784,-1.960784,3
-2.823529,-2.823529,-48,-0.007843,-0.007843,-0.007843,-1.960784,-1.960784,-1.960784,3
-2.823529,-2.823529,-48,-0.007843,0.007843,-0.007843,-1.960784,-1.960784,-1.960784,3
-2.823529,-2.823529,-48,-0.007843,-0.007843,-0.007843,-1.960784,-1.960784,-1.960784,3
-2.823529,-2.823529,-48,-0.007843,-0.007843,-0.007843,-1.960784,-1.960784,-1.960784,3
-2.823529,-2.823529,-48,-0.007843,-0.007843,-0.007843,-1.960784,-1.960784,-1.960784,3
-2.823529,-2.823529,-49.411765,-0.007843,-0.007843,-0.007843,-1.960784,-1.960784,-1.960784,3
-2.823529,-2.823529,-49.411765,-0.007843,-0.007843,-0.007843,-1.960784,-1.960784,-1.960784,3
-2.823529,-2.823529,-49.411765,-0.007843,-0.007843,-0.007843,-1.960784,-1.960784,-1.960784,3
-2.823529,-2.823529,-49.411765,-0.007843,-0.007843,-0.007843,-1.960784,-1.960784,-1.960784,3
-2.823529,-2.823529,-49.411765,-0.007843,-0.007843,-0.007843,-1.960784,-1.960784,-1.960784,3
-2.823529,-2.823529,-49.411765,-0.007843,-0.007843,-0.007843,-1.960784,-1.960784,-1.960784,3
-2.823529,-2.823529,-49.411765,-0.007843,0.007843,-0.007843,-1.960784,-1.960784,-1.960784,3
-2.823529,-2.823529,-49.411765,-0.007843,-0.007843,-0.007843,-1.960784,-1.960784,-1.960784,3
-2.823529,-2.823529,-49.411765,-0.007843,-0.007843,-0.007843,-1.960784,-1.960784,-1.960784,3
-2.823529,-2.823529,-49.411765,-0.007843,-0.007843,-0.007843,-1.960784,-1.960784,-1.960784,3
-2.823529,-2.823529,-49.411765,-0.007843,-0.007843,-0.007843,-1.960784,-1.960784,-1.960784,3
-2.823529,-2.823529,-49.411765,-0.007843,-0.007843,-0.007843,-1.960784,-1.960784,-1.960784,3
-2.823529,-2.823529,-49.411765,-0.007843,-0.007843,-0.007843,-1.960784,-1.960784,-1.960784,3
-2.823529,-2.823529,-49.411765,-0.007843,0.007843,-0.007843,-1.960784,-1.960784,-1.960784,3
-2.823529,-2.823529,-49.411765,-0.007843,-0.007843,-0.007843,-1.960784,-1.960784,-1.960784,3
-2.823529,-2.823529,-49.411765,-0.007843,-0.007843,-0.007843,-1.960784,-1.960784,-1.960784,3
-2.823529,-2.823529,-49.411765,-0.007843,0.007843,-0.007843,-1.960784,-1.960784,-1.960784,3
-2.823529,-2.823529,-49.411765,-0.007843,-0.007843,-0.007843,-1.960784,-1.960784,-1.960784,3
-2.823529,-2.823529,-49.411765,-0.007843,-0.007843,-0.007843,-1.960784,-1.960784,-1.960784,3
-2.823529,-2.823529,-49.411765,-0.007843,-0.007843,-0.007843,-1.960784,-1.960784,-1.960784,3
-2.823529,-2.823529,-49.411765,-0.007843,-0.007843,-0.007843,-1.960784,-1.960784,-1.960784,3
-2.823529,-2.823529,-49.411765,-0.007843,-0.007843,-0.007843,-1.960784,-1.960784,-1.960784,3
-2.823529,-2.823529,-49.411765,-0.007843,-0.007843,-0.007843,-1.960784,-1.960784,-1.960784,3
-2.823529,-2.823529,-49.411765,-0.007843,-0.007843,-0.007843,-1.960784,-1.960784,-1.960784,3
-2.823529,-2.823529,-49.411765,-0.007843,-0.007843,-0.007843,-1.960784,-1.960784,-1.960784,3
-2.823529,-2.823529,-50.823529,-0.007843,-0.007843,-0.007843,-1.960784,-1.960784,-1.960784,3
-2.823529,-2.823529,-50.823529,-0.007843,-0.007843,-0.007843,-1.960784,-1.960784,-1.960784,3
-2.823529,-2.823529,-50.823529,-0.007843,-0.007843,-0.007843,-1.960784,-1.960784,-1.960784,3
-2.823529,-2.823529,-50.823529,-0.007843,-0.007843,-0.007843,-1.960784,-1.960784,-1.960784,3
-2.823529,-2.823529,-50.823529,-0.007843,-0.007843,-0.007843,-1.960784,-1.960784,-1.960784,3
-2.823529,-2.823529,-50.823529,-0.007843,-0.007843,-0.007843,-1.960784,-1.960784,-1.960784,3
-2.823529,-2.823529,-50.823529,-0.007843,-0.007843,-0.007843,-1.960784,-1.960784,-1.960784,3
-2.823529,-2.823529,-50.823529,-0.007843,-0.007843,-0.007843,-1.960784,-1.960784,-1.960784,3
-2.823529,-2.823529,-50.823529,-0.007843,-0.007843,-0.007843,-1.960784,-1.960784,-1.960784,3
-2.823529,-2.823529,-50.823529,-0.007843,-0.007843,-0.007843,-1.960784,-1.960784,-1.960784,3
-2.823529,-2.823529,-50.823529,-0.007843,-0.007843,-0.007843,-1.960784,-1.960784,-1.960784,3
-2.823529,-2.823529,-50.823529,-0.007843,-0.007843,-0.007843,-1.960784,-1.960784,-1.960784,3
-2.823529,-2.823529,-50.823529,-0.007843,-0.007843,-0.007843,-1.960784,-1.960784,-1.960784,3
-2.823529,-2.823529,-50.823529,-0.007843,-0.007843,-0.007843,-1.960784,-1.960784,-1.960784,3
-2.823529,-2.823529,-50.823529,-0.007843,-0.007843,-0.007843,-1.960784,-1.960784,-1.960784,3
-2.823529,-2.823529,-50.823529,-0.007843,0.007843,-0.007843,-1.960784,-1.960784,-1.960784,3
-2.823529,-2.823529,-50.823529,-0.007843,-0.007843,-0.007843,-1.960784,-1.960784,-1.960784,3
-2.823529,-2.823529,-50.823529,-0.007843,-0.007843,-0.007843,-1.960784,-1.960784,-1.960784,3
-2.823529,-2.823529,-50.823529,-0.007843,-0.007843,-0.007843,-1.960784,-1.960784,-1.960784,3
-2.823529,-2.823529,-50.823529,-0.007843,-0.007843,-0.007843,-1.960784,-1.960784,-5.882353,3
-2.823529,-2.823529,-50.823529,-0.007843,-0.007843,-0.007843,-1.960784,-1.960784,-1.960784,3
-2.823529,-2.823529,-50.823529,-0.007843,-0.007843,-0.007843,-1.960784,-1.960784,-1.960784,3
-2.823529,-2.823529,-50.823529,-0.007843,-0.007843,-0.007843,-1.960784,-1.960784,-1.960784,3
-2.823529,-2.823529,-50.823529,-0.007843,-0.007843,-0.007843,-1.960784,-1.960784,-1.960784,3
-2.823529,-2.823529,-50.823529,-0.007843,0.007843,-0.007843,-1.960784,-1.960784,-1.960784,3
-2.823529,-2.823529,-52.235294,-0.007843,-0.007843,-0.007843,-1.960784,-1.960784,-1.960784,3
-2.823529,-2.823529,-52.235294,-0.007843,-0.007843,-0.007843,-1.960784,-1.960784,-1.960784,3
-2.823529,-2.823529,-52.235294,-0.007843,0.007843,-0.007843,-1.960784,-1.960784,-1.960784,3
-2.823529,-2.823529,-52.235294,-0.007843,0.007843,-0.007843,-1.960784,-1.960784,-1.960784,3
-2.823529,-2.823529,-52.235294,-0.007843,-0.007843,-0.007843,-1.960784,-1.960784,-1.960784,3
-2.823529,-2.823529,-52.235294,-0.007843,-0.007843,-0.007843,-1.960784,-1.960784,-1.960784,3
-2.823529,-2.823529,-52.235294,-0.007843,0.007843,-0.007843,-1.960784,-1.960784,-1.960784,3
-2.823529,-2.823529,-52.235294,-0.007843,-0.007843,-0.007843,-1.960784,-1.960784,-1.960784,3
-2.823529,-2.823529,-52.235294,-0.007843,-0.007843,-0.007843,-1.960784,-1.960784,-1.960784,3
-2.823529,-2.823529,-52.235294,-0.007843,-0.007843,-0.007843,-1.960784,-1.960784,-1.960784,3
-2.823529,-2.823529,-52.235294,-0.007843,-0.007843,-0.007843,-1.960784,-1.960784,-1.960784,3
-2.823529,-2.823529,-52.235294,-0.007843,-0.007843,-0.007843,-1.960784,-1.960784,-1.960784,3
-2.823529,-2.823529,-52.235294,-0.007843,-0.007843,-0.007843,-1.960784,-1.960784,-1.960784,3
-2.823529,-2.823529,-52.235294,-0.007843,0.007843,-0.007843,-1.960784,-1.960784,-1.960784,3
-2.823529,-2.823529,-52.235294,-0.007843,-0.007843,-0.007843,-1.960784,-1.960784,-1.960784,3
-2.823529,-2.823529,-52.235294,-0.007843,-0.007843,-0.007843,-1.960784,-1.960784,-1.960784,3
-2.823529,-2.823529,-52.235294,-0.007843,-0.007843,-0.007843,-1.960784,-1.960784,-1.960784,3
-2.823529,-2.823529,-52.235294,-0.007843,-0.007843,-0.007843,-1.960784,-1.960784,-1.960784,3
-2.823529,-2.823529,-52.235294,-0.007843,-0.007843,-0.007843,-1.960784,-1.960784,-1.960784,3
-2.823529,-2.823529,-52.235294,-0.007843,-0.007843,-0.007843,-1.960784,-1.960784,-1.960784,3
-2.823529,-2.823529,-52.235294,-0.007843,0.007843,-0.007843,-1.960784,-1.960784,-1.960784,3
-2.823529,-2.823529,-52.235294,-0.007843,-0.007843,-0.007843,-1.960784,-1.960784,-1.960784,3
-2.823529,-2.823529,-52.235294,-0.007843,-0.007843,-0.007843,-1.960784,-1.960784,-1.960784,3
-2.823529,-2.823529,-52.235294,-0.007843,-0.007843,-0.007843,-1.960784,-1.960784,-1.960784,3
-2.823529,-2.823529,-52.235294,-0.007843,-0.007843,-0.007843,-1.960784,-1.960784,-1.960784,3
-2.823529,-2.823529,-53.647059,-0.007843,-0.007843,-0.007843,-1.960784,-1.960784,-1.960784,3
-2.823529,-2.823529,-53.647059,-0.007843,-0.007843,-0.007843,-1.960784,-1.960784,-1.960784,3
-2.823529,-2.823529,-53.647059,-0.007843,-0.007843,-0.007843,-1.960784,-1.960784,-1.960784,3
-2.823529,-2.823529,-53.647059,-0.007843,-0.007843,-0.007843,-1.960784,-1.960784,-1.960784,3
-2.823529,-2.823529,-53.647059,-0.007843,-0.007843,-0.007843,-1.960784,-1.960784,-1.960784,3
-2.823529,-2.823529,-53.647059,-0.007843,-0.007843,-0.007843,-1.960784,-1.960784,-1.960784,3
-2.823529,-2.823529,-53.647059,-0.007843,-0.007843,-0.007843,-1.960784,-1.960784,-1.960784,3
-2.823529,-2.823529,-53.647059,-0.007843,-0.007843,-0.007843,-1.960784,-1.960784,-1.960784,3
-2.823529,-2.823529,-53.647059,-0.007843,-0.007843,-0.007843,-1.960784,-1.960784,-1.960784,3
-2.823529,-2.823529,-53.647059,-0.007843,-0.007843,-0.007843,-1.960784,-1.960784,-1.960784,3
-2.823529,-2.823529,-53.647059,-0.007843,-0.007843,-0.007843,-1.960784,-1.960784,-1.960784,3
-2.823529,-2.823529,-53.647059,-0.007843,-0.007843,-0.007843,-1.960784,-1.960784,-1.960784,3
-2.823529,-2.823529,-53.647059,-0.007843,-0.007843,-0.007843,-1.960784,-1.960784,-1.960784,3
-2.823529,-2.823529,-53.647059,-0.007843,-0.007843,-0.007843,-1.960784,-1.960784,-1.960784,3
-2.823529,-2.823529,-53.647059,-0.007843,-0.007843,-0.007843,-1.960784,-1.960784,-1.960784,3
-2.823529,-2.823529,-53.647059,-0.007843,-0.007843,-0.007843,-1.960784,-1.960784,-1.960784,3
-2.823529,-2.823529,-53.647059,-0.007843,0.007843,-0.007843,-1.960784,-1.960784,-1.960784,3
-2.823529,-2.823529,-53.647059,-0.007843,-0.007843,-0.007843,-1.960784,-1.960784,-1.960784,3
-2.823529,-2.823529,-53.647059,-0.007843,-0.007843,-0.007843,-1.960784,-1.960784,-1.960784,3
-2.823529,-2.823529,-53.647059,-0.007843,0.007843,-0.007843,-1.960784,-1.960784,-1.960784,3
-2.823529,-2.823529,-53.647059,-0.007843,-0.007843,-0.007843,-1.960784,-1.960784,-1.960784,3
-2.823529,-2.823529,-53.647059,-0.007843,-0.007843,-0.007843,-1.960784,-1.960784,-1.960784,3
-2.823529,-2.823529,-53.647059,-0.007843,0.007843,-0.007843,-1.960784,-1.960784,-1.960784,3
-2.823529,-2.823529,-53.647059,-0.007843,-0.007843,-0.007843,-1.960784,-1.960784,-1.960784,3
-2.823529,-2.823529,-53.647059,-0.007843,0.007843,-0.007843,-1.960784,-1.960784,-1.960784,3
-2.823529,-2.823529,-55.058824,-0.007843,-0.007843,-0.007843,-1.960784,-1.960784,-1.960784,3
-2.823529,-2.823529,-55.058824,-0.007843,-0.007843,-0.007843,-1.960784,-1.960784,-1.960784,3
-2.823529,-2.823529,-55.058824,-0.007843,-0.007843,-0.007843,-1.960784,-1.960784,-1.960784,3
-2.823529,-2.823529,-55.058824,-0.007843,-0.007843,-0.007843,-1.960784,-1.960784,-1.960784,3
-2.823529,-2.823529,-55.058824,-0.007843,-0.007843,-0.007843,-1.960784,-1.960784,-1.960784,3
-2.823529,-2.823529,-55.058824,-0.007843,-0.007843,-0.007843,-1.960784,-1.960784,-1.960784,3
-2.823529,-2.823529,-55.058824,-0.007843,-0.007843,-0.007843,-1.960784,-1.960784,-1.960784,3
-2.823529,-2.823529,-55.058824,-0.007843,-0.007843,-0.007843,-1.960784,-1.960784,-1.960784,3
-2.823529,-2.823529,-55.058824,-0.007843,-0.007843,-0.007843,-1.960784,-1.960784,-1.960784,3
-2.823529,-2.823529,-55.058824,-0.007843,-0.007843,-0.007843,-1.960784,-1.960784,-1.960784,3
-2.823529,-2.823529,-55.058824,-0.007843,-0.007843,-0.007843,-1.960784,-1.960784,-1.960784,3
-2.823529,-2.823529,-55.058824,-0.007843,-0.007843,-0.007843,-1.960784,-1.960784,-1.960784,3
-2.823529,-2.823529,-55.058824,-0.007843,-0.007843,-0.007843,-1.960784,-1.960784,-1.960784,3
-2.823529,-2.823529,-55.058824,-0.007843,-0.007843,-0.007843,-1.960784,-1.960784,-1.960784,3
-2.823529,-2.823529,-55.058824,-0.007843,-0.007843,-0.007843,-1.960784,-1.960784,-1.960784,3
-2.823529,-2.823529,-55.058824,-0.007843,-0.007843,-0.007843,-1.960784,-1.960784,-1.960784,3
-2.823529,-2.823529,-55.058824,-0.007843,-0.007843,-0.007843,-1.960784,-1.960784,-1.960784,3
-2.823529,-2.823529,-55.058824,-0.007843,-0.007843,-0.007843,-1.960784,-1.960784,-1.960784,3
-2.823529,-2.823529,-55.058824,-0.007843,-0.007843,-0.007843,-1.960784,-1.960784,-1.960784,3
-2.823529,-2.823529,-55.058824,-0.007843,-0.007843,-0.007843,-1.960784,-1.960784,-1.960784,3
-2.823529,-2.823529,-55.058824,-0.007843,-0.007843,-0.007843,-1.960784,-1.960784,-1.960784,3
-2.823529,-2.823529,-55.058824,-0.007843,-0.007843,-0.007843,-1.960784,-1.960784,-1.960784,3
-2.823529,-2.823529,-55.058824,-0.007843,-0.007843,-0.007843,-1.960784,-1.960784,-1.960784,3
-2.823529,-2.823529,-55.058824,-0.007843,-0.007843,-0.007843,-1.960784,-1.960784,-1.960784,3
-2.823529,-2.823529,-55.058824,-0.007843,-0.007843,-0.007843,-1.960784,-1.960784,-1.960784,3
-2.823529,-2.823529,-56.470588,-0.007843,-0.007843,-0.007843,-1.960784,-1.960784,-1.960784,3
-2.823529,-2.823529,-56.470588,-0.007843,0.007843,-0.007843,-1.960784,-1.960784,-1.960784,3
-2.823529,-2.823529,-56.470588,-0.007843,-0.007843,-0.007843,-1.960784,-1.960784,-1.960784,3
-2.823529,-2.823529,-56.470588,-0.007843,-0.007843,-0.007843,-1.960784,-1.960784,-1.960784,3
-2.823529,-2.823529,-56.470588,-0.007843,-0.007843,-0.007843,-1.960784,-1.960784,-1.960784,3
-2.823529,-2.823529,-56.470588,-0.007843,0.007843,-0.007843,-1.960784,-1.960784,-1.960784,3
-2.823529,-2.823529,-56.470588,-0.007843,-0.007843,-0.007843,-1.960784,-1.960784,-1.960784,3
-2.823529,-2.823529,-56.470588,-0.007843,-0.007843,-0.007843,-1.960784,-1.960784,-1.960784,3
-2.823529,-2.823529,-56.470588,-0.007843,-0.007843,-0.007843,-1.960784,-1.960784,-1.960784,3
-2.823529,-2.823529,-56.470588,-0.007843,-0.007843,-0.007843,-1.960784,-1.960784,-1.960784,3
-2.823529,-2.823529,-56.470588,-0.007843,-0.007843,-0.007843,-1.960784,-1.960784,-1.960784,3
-2.823529,-2.823529,-56.470588,-0.007843,-0.007843,-0.007843,-1.960784,-1.960784,-1.960784,3
-2.823529,-2.823529,-56.470588,-0.007843,-0.007843,-0.007843,-1.960784,-1.960784,-1.960784,3
-2.823529,-2.823529,-56.470588,-0.007843,0.007843,-0.007843,-1.960784,-1.960784,-1.960784,3
-2.823529,-2.823529,-56.470588,-0.007843,-0.007843,-0.007843,-1.960784,-1.960784,-1.960784,3
-2.823529,-2.823529,-56.470588,-0.007843,-0.007843,-0.007843,-1.960784,-1.960784,-1.960784,3
-2.823529,-2.823529,-56.470588,-0.007843,-0.007843,-0.007843,-1.960784,-1.960784,-1.960784,3
-2.823529,-2.823529,-56.470588,-0.007843,0.007843,-0.023529,-1.960784,-1.960784,-1.960784,3
-2.823529,-2.823529,-56.470588,-0.007843,-0.007843,-0.007843,-1.960784,-1.960784,-1.960784,3
-2.823529,-2.823529,-56.470588,-0.007843,-0.007843,-0.007843,-1.960784,-1.960784,-1.960784,3
-2.823529,-2.823529,-56.470588,-0.007843,-0.007843,-0.007843,-1.960784,-1.960784,-1.960784,3
-2.823529,-2.823529,-56.470588,-0.007843,-0.007843,-0.007843,-1.960784,-1.960784,-1.960784,3
-2.823529,-2.823529,-56.470588,-0.007843,-0.007843,-0.007843,-1.960784,-1.960784,-1.960784,3
-2.823529,-2.823529,-56.470588,-0.007843,-0.007843,-0.007843,-1.960784,-1.960784,-1.960784,3
-2.823529,-2.823529,-56.470588,-0.007843,-0.007843,-0.007843,-1.960784,-1.960784,-1.960784,3
-2.823529,-2.823529,-57.882353,-0.007843,-0.007843,-0.007843,-1.960784,-1.960784,-1.960784,3
-2.823529,-2.823529,-57.882353,-0.007843,-0.007843,-0.007843,-1.960784,-1.960784,-1.960784,3
-2.823529,-2.823529,-57.882353,-0.007843,0.007843,-0.007843,-1.960784,-1.960784,-1.960784,3
-2.823529,-2.823529,-57.882353,-0.007843,-0.007843,-0.007843,-1.960784,-1.960784,-1.960784,3
-2.823529,-2.823529,-57.882353,-0.007843,-0.007843,-0.007843,-1.960784,-1.960784,-1.960784,3
-2.823529,-2.823529,-57.882353,-0.007843,-0.007843,-0.007843,-1.960784,-1.960784,-1.960784,3
-2.823529,-2.823529,-57.882353,-0.007843,-0.007843,-0.007843,-1.960784,-1.960784,-1.960784,3
-2.823529,-2.823529,-57.882353,-0.007843,-0.007843,-0.007843,-1.960784,-1.960784,-1.960784,3
-2.823529,-2.823529,-57.882353,-0.007843,-0.007843,-0.007843,-1.960784,-1.960784,-1.960784,3
-2.823529,-2.823529,-57.882353,-0.007843,-0.007843,-0.007843,-1.960784,-1.960784,-1.960784,3
-2.823529,-2.823529,-57.882353,-0.007843,-0.007843,-0.007843,-1.960784,-1.960784,-1.960784,3
-2.823529,-2.823529,-57.882353,-0.007843,0.007843,-0.007843,-1.960784,-1.960784,-1.960784,3
-2.823529,-2.823529,-57.882353,-0.007843,-0.007843,-0.007843,-1.960784,-1.960784,-1.960784,3
-2.823529,-2.823529,-57.882353,-0.007843,-0.007843,-0.007843,-1.960784,-1.960784,-1.960784,3
-2.823529,-2.823529,-57.882353,-0.007843,-0.007843,-0.007843,-1.960784,-1.960784,-1.960784,3
-2.823529,-2.823529,-57.882353,-0.007843,-0.007843,-0.007843,-1.960784,-1.960784,-1.960784,3
-2.823529,-2.823529,-57.882353,-0.007843,-0.007843,-0.007843,-1.960784,-1.960784,-1.960784,3
-2.823529,-2.823529,-57.882353,-0.007843,-0.007843,-0.007843,-1.960784,-1.960784,-1.960784,3
-2.823529,-2.823529,-57.882353,-0.007843,-0.007843,-0.007843,-1.960784,-1.960784,-1.960784,3
-2.823529,-2.823529,-57.882353,-0.007843,-0.007843,-0.007843,-1.960784,-1.960784,-1.960784,3
-2.823529,-2.823529,-57.882353,-0.007843,0.007843,-0.007843,-1.960784,-1.960784,-1.960784,3
-2.823529,-2.823529,-57.882353,-0.007843,-0.007843,-0.007843,-1.960784,-1.960784,-5.882353,3
-2.823529,-2.823529,-57.882353,-0.007843,-0.007843,-0.007843,-1.960784,-1.960784,-1.960784,3
-2.823529,-2.823529,-57.882353,-0.007843,-0.007843,-0.007843,-1.960784,-1.960784,-1.960784,3
-2.823529,-2.823529,-57.882353,-0.007843,-0.007843,-0.007843,-1.960784,-1.960784,-1.960784,3
-2.823529,-2.823529,-59.294118,-0.007843,-0.007843,-0.007843,-1.960784,-1.960784,-1.960784,3
-2.823529,-2.823529,-59.294118,-0.007843,-0.007843,-0.007843,-1.960784,-1.960784,-1.960784,3
-2.823529,-2.823529,-59.294118,-0.007843,-0.007843,-0.007843,-1.960784,-1.960784,-1.960784,3
-2.823529,-2.823529,-59.294118,-0.007843,-0.007843,-0.007843,-1.960784,-1.960784,-1.960784,3
-2.823529,-2.823529,-59.294118,-0.007843,-0.007843,-0.007843,-1.960784,-1.960784,-1.960784,3
-2.823529,-2.823529,-59.294118,-0.007843,-0.007843,-0.007843,-1.960784,-1.960784,-1.960784,3
-2.823529,-2.823529,-59.294118,-0.007843,-0.007843,-0.007843,-1.960784,-1.960784,-1.960784,3
-2.823529,-2.823529,-59.294118,-0.007843,-0.007843,-0.007843,-1.960784,-1.960784,-1.960784,3
-2.823529,-2.823529,-59.294118,-0.007843,0.007843,-0.007843,-1.960784,-1.960784,-1.960784,3
-2.823529,-2.823529,-59.294118,-0.007843,-0.007843,-0.007843,-1.960784,-1.960784,-1.960784,3
-2.823529,-2.823529,-59.294118,-0.007843,-0.007843,-0.007843,-1.960784,-1.960784,-1.960784,3
-2.823529,-2.823529,-59.294118,-0.007843,-0.007843,-0.007843,-1.960784,-1.960784,-1.960784,3
-2.823529,-2.823529,-59.294118,-0.007843,-0.007843,-0.007843,-1.960784,-1.960784,-1.960784,3
-2.823529,-2.823529,-59.294118,-0.007843,-0.007843,-0.007843,-1.960784,-1.960784,-1.960784,3
-2.823529,-2.823529,-59.294118,-0.007843,0.007843,-0.007843,-1.960784,-1.960784,-1.960784,3
-2.823529,-2.823529,-59.294118,-0.007843,-0.007843,-0.007843,-1.960784,-1.960784,-1.960784,3
-2.823529,-2.823529,-59.294118,-0.007843,-0.007843,-0.007843,-1.960784,-1.960784,-1.960784,3
-2.823529,-2.823529,-59.294118,-0.007843,-0.007843,-0.007843,-1.960784,-1.960784,-1.960784,3
-2.823529,-2.823529,-59.294118,-0.007843,-0.007843,-0.007843,-1.960784,-1.960784,-1.960784,3
-2.823529,-2.823529,-59.294118,-0.007843,-0.007843,-0.007843,-1.960784,-1.960784,-1.960784,3
-2.823529,-2.823529,-59.294118,-0.007843,-0.007843,-0.007843,-1.960784,-1.960784,-1.960784,3
-2.823529,-2.823529,-59.294118,-0.007843,-0.007843,-0.007843,-1.960784,-1.960784,-1.960784,3
-2.823529,-2.823529,-59.294118,-0.007843,0.007843,-0.007843,-1.960784,-1.960784,-1.960784,3
-2.823529,-2.823529,-59.294118,-0.007843,-0.007843,-0.007843,-1.960784,-1.960784,-1.960784,3
-2.823529,-2.823529,-59.294118,-0.007843,-0.007843,-0.007843,-1.960784,-1.960784,-1.960784,3
-2.823529,-2.823529,-60.705882,-0.007843,-0.007843,-0.007843,-1.960784,-1.960784,-1.960784,3
-2.823529,-2.823529,-60.705882,-0.007843,0.007843,-0.007843,-1.960784,-1.960784,-1.960784,3
-2.823529,-2.823529,-60.705882,-0.007843,-0.007843,-0.007843,-1.960784,-1.960784,-1.960784,3
-2.823529,-2.823529,-60.705882,-0.007843,-0.007843,-0.007843,-1.960784,-1.960784,-1.960784,3
-2.823529,-2.823529,-60.705882,-0.007843,-0.007843,-0.007843,-1.960784,-1.960784,-1.960784,3
-2.823529,-2.823529,-60.705882,-0.007843,-0.007843,-0.007843,-1.960784,-1.960784,-1.960784,3
-2.823529,-2.823529,-60.705882,-0.007843,-0.007843,-0.007843,-1.960784,-1.960784,-1.960784,3
-2.823529,-2.823529,-60.705882,-0.007843,-0.007843,-0.007843,-1.960784,-1.960784,-1.960784,3
-2.823529,-2.823529,-60.705882,-0.007843,0.007843,-0.007843,-1.960784,-1.960784,-1.960784,3
-2.823529,-2.823529,-60.705882,-0.007843,0.007843,-0.007843,-1.960784,-1.960784,-1.960784,3
-2.823529,-2.823529,-60.705882,-0.007843,-0.007843,-0.007843,-1.960784,-1.960784,-1.960784,3
-2.823529,-2.823529,-60.705882,-0.007843,-0.007843,-0.007843,-1.960784,-1.960784,-1.960784,3
-2.823529,-2.823529,-60.705882,-0.007843,-0.007843,-0.007843,-1.960784,-1.960784,-1.960784,3
-2.823529,-2.823529,-60.705882,-0.007843,-0.007843,-0.007843,-1.960784,-1.960784,-1.960784,3
-2.823529,-2.823529,-60.705882,-0.007843,-0.007843,-0.007843,-1.960784,-1.960784,-1.960784,3
-2.823529,-2.823529,-60.705882,-0.007843,-0.007843,-0.007843,-1.960784,-1.960784,-5.882353,3
-2.823529,-2.823529,-60.705882,-0.007843,-0.007843,-0.007843,-1.960784,-1.960784,-1.960784,3
-2.823529,-2.823529,-60.705882,-0.007843,-0.007843,-0.007843,-1.960784,-1.960784,-1.960784,3
-2.823529,-2.823529,-60.705882,-0.007843,-0.007843,-0.007843,-1.960784,-1.960784,-1.960784,3
-2.823529,-2.823529,-60.705882,-0.007843,-0.007843,-0.007843,-1.960784,-1.960784,-1.960784,3
-2.823529,-2.823529,-60.705882,-0.007843,-0.007843,-0.007843,-1.960784,-1.960784,-1.960784,3
-2.823529,-2.823529,-60.705882,-0.007843,-0.007843,-0.007843,-1.960784,-1.960784,-1.960784,3
-2.823529,-2.823529,-60.705882,-0.007843,-0.007843,-0.007843,-1.960784,-1.960784,-1.960784,3
-2.823529,-2.823529,-60.705882,-0.007843,-0.007843,-0.007843,-1.960784,-1.960784,-1.960784,3
-2.823529,-2.823529,-60.705882,-0.007843,-0.007843,-0.007843,-1.960784,-1.960784,-1.960784,3
-2.823529,-2.823529,-62.117647,-0.007843,-0.007843,-0.007843,-1.960784,-1.960784,-1.960784,3
-2.823529,-2.823529,-62.117647,-0.007843,-0.007843,-0.007843,-1.960784,-1.960784,-1.960784,3
-2.823529,-2.823529,-62.117647,-0.007843,-0.007843,-0.007843,-1.960784,-1.960784,-1.960784,3
-2.823529,-2.823529,-62.117647,-0.007843,-0.007843,-0.007843,-1.960784,-1.960784,-1.960784,3
-2.823529,-2.823529,-62.117647,-0.007843,-0.007843,-0.007843,-1.960784,-1.960784,-1.960784,3
-2.823529,-2.823529,-62.117647,-0.007843,-0.007843,-0.007843,-1.960784,-1.960784,-1.960784,3
-2.823529,-2.823529,-62.117647,-0.007843,-0.007843,-0.007843,-1.960784,-1.960784,-1.960784,3
-2.823529,-2.823529,-62.117647,-0.007843,0.007843,-0.007843,-1.960784,-1.960784,-1.960784,3
-2.823529,-2.823529,-62.117647,-0.007843,-0.007843,-0.007843,-1.960784,-1.960784,-1.960784,3
-2.823529,-2.823529,-62.117647,-0.007843,-0.007843,-0.007843,-1.960784,-1.960784,-1.960784,3
-2.823529,-2.823529,-62.117647,-0.007843,-0.007843,-0.007843,-1.960784,-1.960784,-1.960784,3
-2.823529,-2.823529,-62.117647,-0.007843,-0.007843,-0.007843,-1.960784,-1.960784,-1.960784,3
-2.823529,-2.823529,-62.117647,-0.007843,-0.007843,-0.007843,-1.960784,-1.960784,-1.960784,3
-2.823529,-2.823529,-62.117647,-0.007843,-0.007843,-0.007843,-1.960784,-1.960784,-1.960784,3
-2.823529,-2.823529,-62.117647,-0.007843,-0.007843,-0.007843,-1.960784,-1.960784,-1.960784,3
-2.823529,-2.823529,-62.117647,-0.007843,-0.007843,-0.007843,-1.960784,-1.960784,-1.960784,3
-2.823529,-2.823529,-62.117647,-0.007843,-0.007843,-0.007843,-1.960784,-1.960784,-1.960784,3
-2.823529,-2.823529,-62.117647,-0.007843,-0.007843,-0.007843,-1.960784,-1.960784,-1.960784,3
-2.823529,-2.823529,-62.117647,-0.007843,-0.007843,-0.007843,-1.960784,-1.960784,-1.960784,3
-2.823529,-2.823529,-62.117647,-0.007843,0.007843,-0.007843,-1.960784,-1.960784,-1.960784,3
-2.823529,-2.823529,-62.117647,-0.007843,-0.007843,-0.007843,-1.960784,-1.960784,-1.960784,3
-2.823529,-2.823529,-62.117647,-0.007843,-0.007843,-0.007843,-1.960784,-1.960784,-1.960784,3
-2.823529,-2.823529,-62.117647,-0.007843,-0.007843,-0.007843,-1.960784,-1.960784,-1.960784,3
-2.823529,-2.823529,-62.117647,-0.007843,-0.007843,-0.007843,-1.960784,-1.960784,-1.960784,3
-2.823529,-2.823529,-62.117647,-0.007843,-0.007843,-0.007843,-1.960784,-1.960784,-1.960784,3
-2.823529,-2.823529,-62.117647,-0.007843,-0.007843,-0.007843,-1.960784,-1.960784,-1.960784,3
-2.823529,-2.823529,-63.529412,-0.007843,-0.007843,-0.007843,-1.960784,-1.960784,-1.960784,3
-2.823529,-2.823529,-63.529412,-0.007843,-0.007843,-0.007843,-1.960784,-1.960784,-5.882353,3
-2.823529,-2.823529,-63.529412,-0.007843,-0.007843,-0.007843,-1.960784,-1.960784,-1.960784,3
-2.823529,-2.823529,-63.529412,-0.007843,-0.007843,-0.007843,-1.960784,-1.960784,-1.960784,3
-2.823529,-2.823529,-63.529412,-0.007843,-0.007843,-0.007843,-1.960784,-1.960784,-1.960784,3
-2.823529,-2.823529,-63.529412,-0.007843,-0.007843,-0.007843,-1.960784,-1.960784,-1.960784,3
-2.823529,-2.823529,-63.529412,-0.007843,0.007843,-0.007843,-1.960784,-1.960784,-1.960784,3
-2.823529,-2.823529,-63.529412,-0.007843,-0.007843,-0.007843,-1.960784,-1.960784,-1.960784,3
-2.823529,-2.823529,-63.529412,-0.007843,0.007843,-0.007843,-1.960784,-1.960784,-1.960784,3
-2.823529,-2.823529,-63.529412,-0.007843,-0.007843,-0.007843,-1.960784,-1.960784,-1.960784,3
-2.823529,-2.823529,-63.529412,-0.007843,-0.007843,-0.023529,-1.960784,-1.960784,-1.960784,3
-2.823529,-2.823529,-63.529412,-0.007843,-0.007843,-0.007843,-1.960784,-1.960784,-1.960784,3
-2.823529,-2.823529,-63.529412,-0.007843,-0.007843,-0.007843,-1.960784,-1.960784,-1.960784,3
-2.823529,-2.823529,-63.529412,-0.007843,-0.007843,-0.007843,-1.960784,-1.960784,-1.960784,3
-2.823529,-2.823529,-63.529412,-0.007843,0.007843,-0.007843,-1.960784,-1.960784,-1.960784,3
-2.823529,-2.823529,-63.529412,-0.007843,-0.007843,-0.007843,-1.960784,-1.960784,-1.960784,3
-2.823529,-2.823529,-63.529412,-0.007843,-0.007843,-0.007843,-1.960784,-1.960784,-1.960784,3
-2.823529,-2.823529,-63.529412,-0.007843,0.007843,-0.023529,-1.960784,-1.960784,-1.960784,3
-2.823529,-2.823529,-63.529412,-0.007843,-0.007843,-0.007843,-1.960784,-1.960784,-1.960784,3
-2.823529,-2.823529,-63.529412,-0.007843,-0.007843,-0.007843,-1.960784,-1.960784,-1.960784,3
-2.823529,-2.823529,-63.529412,-0.007843,-0.007843,-0.007843,-1.960784,-1.960784,-1.960784,3
-2.823529,-2.823529,-63.529412,-0.007843,-0.007843,-0.007843,-1.960784,-1.960784,-1.960784,3
-2.823529,-2.823529,-63.529412,-0.007843,-0.007843,-0.007843,-1.960784,-1.960784,-1.960784,3
-2.823529,-2.823529,-63.529412,-0.007843,-0.007843,-0.007843,-1.960784,-1.960784,-1.960784,3
-2.823529,-2.823529,-64.941176,-0.007843,-0.007843,-0.007843,-1.960784,-1.960784,-1.960784,3
-2.823529,-2.823529,-64.941176,-0.007843,0.007843,-0.007843,-1.960784,-1.960784,-1.960784,3
-2.823529,-2.823529,-64.941176,-0.007843,-0.007843,-0.007843,-1.960784,-1.960784,-1.960784,3
-2.823529,-2.823529,-64.941176,-0.007843,-0.007843,-0.007843,-1.960784,-1.960784,-1.960784,3
-2.823529,-2.823529,-64.941176,-0.007843,-0.007843,-0.007843,-1.960784,-1.960784,-1.960784,3
-2.823529,-2.823529,-64.941176,-0.007843,-0.007843,-0.007843,-1.960784,-1.960784,-1.960784,3
-2.823529,-2.823529,-64.941176,-0.007843,-0.007843,-0.007843,-1.960784,-1.960784,-1.960784,3
-2.823529,-2.823529,-64.941176,-0.007843,-0.007843,-0.007843,-1.960784,-1.960784,-1.960784,3
-2.823529,-2.823529,-64.941176,-0.007843,-0.007843,-0.007843,-1.960784,-1.960784,-1.960784,3
-2.823529,-2.823529,-64.941176,-0.007843,-0.007843,0.007843,-1.960784,-1.960784,-1.960784,3
-2.823529,-2.823529,-64.941176,-0.007843,-0.007843,-0.007843,-1.960784,-1.960784,-1.960784,3
-2.823529,-2.823529,-64.941176,-0.007843,-0.007843,-0.007843,-1.960784,-1.960784,-1.960784,3
-2.823529,-2.823529,-64.941176,-0.007843,-0.007843,-0.007843,-1.960784,-1.960784,-1.960784,3
-2.823529,-2.823529,-64.941176,-0.007843,-0.007843,-0.007843,-1.960784,-1.960784,-1.960784,3
-2.823529,-2.823529,-64.941176,-0.007843,-0.007843,-0.007843,-1.960784,-1.960784,-1.960784,3
-2.823529,-2.823529,-64.941176,-0.007843,-0.007843,-0.007843,-1.960784,-1.960784,-1.960784,3
-2.823529,-2.823529,-64.941176,-0.007843,-0.007843,-0.007843,-1.960784,-1.960784,-1.960784,3
-2.823529,-2.823529,-64.941176,-0.007843,-0.007843,-0.007843,-1.960784,-1.960784,-1.960784,3
-2.823529,-2.823529,-64.941176,-0.007843,-0.007843,-0.007843,-1.960784,-1.960784,-1.960784,3
-2.823529,-2.823529,-64.941176,-0.007843,-0.007843,-0.007843,-1.960784,-1.960784,-1.960784,3
-2.823529,-2.823529,-64.941176,-0.007843,0.007843,-0.007843,-1.960784,-1.960784,-1.960784,3
-2.823529,-2.823529,-64.941176,-0.007843,0.007843,-0.007843,-1.960784,-1.960784,-1.960784,3
-2.823529,-2.823529,-64.941176,-0.007843,-0.007843,-0.007843,-1.960784,-1.960784,-1.960784,3
-2.823529,-2.823529,-64.941176,-0.007843,-0.007843,-0.007843,-1.960784,-1.960784,-1.960784,3
-2.823529,-2.823529,-64.941176,-0.007843,0.007843,-0.007843,-1.960784,-1.960784,-1.960784,3
-2.823529,-2.823529,-66.352941,-0.007843,-0.007843,-0.007843,-1.960784,-1.960784,-1.960784,3
-2.823529,-2.823529,-66.352941,-0.007843,-0.007843,-0.007843,-1.960784,-1.960784,-1.960784,3
-2.823529,-2.823529,-66.352941,-0.007843,-0.007843,-0.007843,-1.960784,-1.960784,-1.960784,3
-2.823529,-2.823529,-66.352941,-0.007843,-0.007843,-0.007843,-1.960784,-1.960784,-1.960784,3
-2.823529,-2.823529,-66.352941,-0.007843,0.007843,-0.007843,-1.960784,-1.960784,-1.960784,3
-2.823529,-2.823529,-66.352941,-0.007843,-0.007843,-0.007843,-1.960784,-1.960784,-1.960784,3
-2.823529,-2.823529,-66.352941,-0.007843,-0.007843,-0.007843,-1.960784,-1.960784,-1.960784,3
-2.823529,-2.823529,-66.352941,-0.007843,-0.007843,-0.007843,-1.960784,-1.960784,-1.960784,3
-2.823529,-2.823529,-66.352941,-0.007843,-0.007843,-0.007843,-1.960784,-1.960784,-1.960784,3
-2.823529,-2.823529,-66.352941,-0.007843,-0.007843,-0.007843,-1.960784,-1.960784,-1.960784,3
-2.823529,-2.823529,-66.352941,-0.007843,-0.007843,-0.007843,-1.960784,-1.960784,-1.960784,3
-2.823529,-2.823529,-66.352941,-0.007843,-0.007843,-0.007843,-1.960784,-1.960784,-1.960784,3
-2.823529,-2.823529,-66.352941,-0.007843,-0.007843,-0.007843,-1.960784,-1.960784,-1.960784,3
-2.823529,-2.823529,-66.352941,-0.007843,-0.007843,-0.007843,-1.960784,-1.960784,-1.960784,3
-2.823529,-2.823529,-66.352941,-0.007843,-0.007843,-0.007843,-1.960784,-1.960784,-1.960784,3
-2.823529,-2.823529,-66.352941,-0.007843,0.007843,-0.007843,-1.960784,-1.960784,-1.960784,3
-2.823529,-2.823529,-66.352941,-0.007843,-0.007843,-0.007843,-1.960784,-1.960784,-1.960784,3
-2.823529,-2.823529,-66.352941,-0.007843,-0.007843,-0.007843,-1.960784,-1.960784,-1.960784,3
-2.823529,-2.823529,-66.352941,-0.007843,-0.007843,-0.007843,-1.960784,-1.960784,-1.960784,3
-2.823529,-2.823529,-66.352941,-0.007843,-0.007843,-0.007843,-1.960784,-1.960784,-1.960784,3
-2.823529,-2.823529,-66.352941,-0.007843,-0.007843,-0.007843,-1.960784,-1.960784,-1.960784,3
-2.823529,-2.823529,-66.352941,-0.007843,-0.007843,-0.007843,-1.960784,-1.960784,-1.960784,3
-2.823529,-2.823529,-66.352941,-0.007843,-0.007843,-0.007843,-1.960784,-1.960784,-1.960784,3
-2.823529,-2.823529,-66.352941,-0.007843,-0.007843,-0.007843,-1.960784,-1.960784,-1.960784,3
-2.823529,-2.823529,-66.352941,-0.007843,-0.007843,-0.007843,-1.960784,-1.960784,-1.960784,3
-2.823529,-2.823529,-67.764706,-0.007843,-0.007843,-0.007843,-1.960784,-1.960784,-1.960784,3
-2.823529,-2.823529,-67.764706,-0.007843,-0.007843,-0.007843,-1.960784,-1.960784,-1.960784,3
-2.823529,-2.823529,-67.764706,-0.007843,-0.007843,-0.007843,-1.960784,-1.960784,-1.960784,3
-2.823529,-2.823529,-67.764706,-0.007843,-0.007843,-0.007843,-1.960784,-1.960784,-1.960784,3
-2.823529,-2.823529,-67.764706,-0.007843,0.007843,-0.007843,-1.960784,-1.960784,-1.960784,3
-2.823529,-2.823529,-67.764706,-0.007843,0.007843,-0.007843,-1.960784,-1.960784,-5.882353,3
-2.823529,-2.823529,-67.764706,-0.007843,-0.007843,-0.007843,-1.960784,-1.960784,-1.960784,3
-2.823529,-2.823529,-67.764706,-0.007843,-0.007843,-0.007843,-1.960784,-1.960784,-1.960784,3
-2.823529,-2.823529,-67.764706,-0.007843,-0.007843,-0.007843,-1.960784,-1.960784,-1.960784,3
-2.823529,-2.823529,-67.764706,-0.007843,-0.007843,-0.007843,-1.960784,-1.960784,-1.960784,3
-2.823529,-2.823529,-67.764706,-0.007843,-0.007843,-0.007843,-1.960784,-1.960784,-1.960784,3
-2.823529,-2.823529,-67.764706,-0.007843,0.007843,-0.007843,-1.960784,-1.960784,-1.960784,3
-2.823529,-2.823529,-67.764706,-0.007843,-0.007843,-0.007843,-1.960784,-1.960784,-1.960784,3
-2.823529,-2.823529,-67.764706,-0.007843,0.007843,-0.007843,-1.960784,-1.960784,-1.960784,3
-2.823529,-2.823529,-67.764706,-0.007843,-0.007843,-0.007843,-1.960784,-1.960784,-1.960784,3
-2.823529,-2.823529,-67.764706,-0.007843,0.007843,-0.007843,-1.960784,-1.960784,-1.960784,3
-2.823529,-2.823529,-67.764706,-0.007843,-0.007843,-0.007843,-1.960784,-1.960784,-1.960784,3
-2.823529,-2.823529,-67.764706,-0.007843,-0.007843,-0.007843,-1.960784,-1.960784,-1.960784,3
-2.823529,-2.823529,-67.764706,-0.007843,0.007843,-0.007843,-1.960784,-1.960784,-1.960784,3
-2.823529,-2.823529,-67.764706,-0.007843,-0.007843,-0.007843,-1.960784,-1.960784,-1.960784,3
-2.823529,-2.823529,-67.764706,-0.007843,-0.007843,-0.007843,-1.960784,-1.960784,-1.960784,3
-2.823529,-2.823529,-67.764706,-0.007843,-0.007843,-0.007843,-1.960784,-1.960784,-1.960784,3
-2.823529,-2.823529,-67.764706,-0.007843,-0.007843,-0.007843,-1.960784,-1.960784,-1.960784,3
-2.823529,-2.823529,-67.764706,-0.007843,-0.007843,-0.007843,-1.960784,-1.960784,-1.960784,3
-2.823529,-2.823529,-67.764706,-0.007843,-0.007843,-0.007843,-1.960784,-1.960784,-1.960784,3
-2.823529,-2.823529,-69.176471,-0.007843,-0.007843,-0.007843,-1.960784,-1.960784,-1.960784,3
-2.823529,-2.823529,-69.176471,-0.007843,-0.007843,-0.007843,-1.960784,-1.960784,-1.960784,3
-2.823529,-2.823529,-69.176471,-0.007843,0.007843,-0.007843,-1.960784,-1.960784,-1.960784,3
-2.823529,-2.823529,-69.176471,-0.007843,-0.007843,-0.007843,-1.960784,-1.960784,-1.960784,3
-2.823529,-2.823529,-69.176471,-0.007843,-0.007843,-0.007843,-1.960784,-1.960784,-1.960784,3
-2.823529,-2.823529,-69.176471,-0.007843,-0.007843,-0.007843,-1.960784,-1.960784,-1.960784,3
-2.823529,-2.823529,-69.176471,-0.007843,-0.007843,-0.007843,-1.960784,-1.960784,-1.960784,3
-2.823529,-2.823529,-69.176471,-0.007843,-0.007843,-0.007843,-1.960784,-1.960784,-1.960784,3
-2.823529,-2.823529,-69.176471,-0.007843,-0.007843,-0.007843,-1.960784,-1.960784,-1.960784,3
-2.823529,-2.823529,-69.176471,-0.007843,-0.007843,-0.007843,-1.960784,-1.960784,-1.960784,3
-2.823529,-2.823529,-69.176471,-0.007843,-0.007843,-0.007843,-1.960784,-1.960784,-1.960784,3
-2.823529,-2.823529,-69.176471,-0.007843,-0.007843,-0.007843,-1.960784,-1.960784,-1.960784,3
-2.823529,-2.823529,-69.176471,-0.007843,-0.007843,-0.007843,-1.960784,-1.960784,-1.960784,3
-2.823529,-2.823529,-69.176471,-0.007843,-0.007843,-0.007843,-1.960784,-1.960784,-1.960784,3
-2.823529,-2.823529,-69.176471,-0.007843,0.007843,-0.007843,-1.960784,-1.960784,-1.960784,3
-2.823529,-2.823529,-69.176471,-0.007843,-0.007843,-0.007843,-1.960784,-1.960784,-1.960784,3
-2.823529,-2.823529,-69.176471,-0.007843,0.007843,-0.007843,-1.960784,-1.960784,-1.960784,3
-2.823529,-2.823529,-69.176471,-0.007843,0.007843,-0.007843,-1.960784,-1.960784,-1.960784,3
-2.823529,-2.823529,-69.176471,-0.007843,-0.007843,-0.007843,-1.960784,-1.960784,-1.960784,3
-2.823529,-2.823529,-69.176471,-0.007843,-0.007843,-0.007843,-1.960784,-1.960784,-1.960784,3
-2.823529,-2.823529,-69.176471,-0.007843,-0.007843,-0.007843,-1.960784,-1.960784,-1.960784,3
-2.823529,-2.823529,-69.176471,-0.007843,-0.007843,-0.007843,-1.960784,-1.960784,-1.960784,3
-2.823529,-2.823529,-69.176471,-0.007843,-0.007843,-0.007843,-1.960784,-1.960784,-1.960784,3
-2.823529,-2.823529,-69.176471,-0.007843,-0.007843,-0.007843,-1.960784,-1.960784,-1.960784,3
-2.823529,-2.823529,-69.176471,-0.007843,-0.007843,-0.007843,-1.960784,-1.960784,-1.960784,3
-2.823529,-2.823529,-70.588235,-0.007843,-0.007843,-0.007843,-1.960784,-1.960784,-5.882353,3
-2.823529,-2.823529,-70.588235,-0.007843,-0.007843,-0.007843,-1.960784,-1.960784,-1.960784,3
-2.823529,-2.823529,-70.588235,-0.007843,-0.007843,-0.007843,-1.960784,-1.960784,-1.960784,3
-2.823529,-2.823529,-70.588235,-0.007843,-0.007843,-0.007843,-1.960784,-1.960784,-1.960784,3
-2.823529,-2.823529,-70.588235,-0.007843,-0.007843,-0.007843,-1.960784,-1.960784,-1.960784,3
-2.823529,-2.823529,-70.588235,-0.007843,-0.007843,-0.007843,-1.960784,-1.960784,-1.960784,3
-2.823529,-2.823529,-70.588235,-0.007843,-0.007843,-0.007843,-1.960784,-1.960784,-1.960784,3
-2.823529,-2.823529,-70.588235,-0.007843,-0.007843,-0.007843,-1.960784,-1.960784,-1.960784,3
-2.823529,-2.823529,-70.588235,-0.007843,-0.007843,-0.007843,-1.960784,-1.960784,-1.960784,3
-2.823529,-2.823529,-70.588235,-0.007843,-0.007843,-0.007843,-1.960784,-1.960784,-1.960784,3
-2.823529,-2.823529,-70.588235,-0.007843,0.007843,-0.007843,-1.960784,-1.960784,-1.960784,3
-2.823529,-2.823529,-70.588235,-0.007843,-0.007843,-0.007843,-1.960784,-1.960784,-1.960784,3
-2.823529,-2.823529,-70.588235,-0.007843,-0.007843,-0.007843,-1.960784,-1.960784,-1.960784,3
-2.823529,-2.823529,-70.588235,-0.007843,0.007843,-0.007843,-1.960784,-1.960784,-1.960784,3
-2.823529,-2.823529,-70.588235,-0.007843,-0.007843,-0.007843,-1.960784,-1.960784,-1.960784,3
-2.823529,-2.823529,-70.588235,-0.007843,-0.007843,-0.007843,-1.960784,-1.960784,-1.960784,3
-2.823529,-2.823529,-70.588235,-0.007843,-0.007843,-0.007843,-1.960784,-1.960784,-1.960784,3
-2.823529,-2.823529,-70.588235,-0.007843,-0.007843,-0.007843,-1.960784,-1.960784,-1.960784,3
-2.823529,-2.823529,-70.588235,-0.007843,-0.007843,-0.007843,-1.960784,-1.960784,-1.960784,3
-2.823529,-2.823529,-70.588235,-0.007843,-0.007843,-0.007843,-1.960784,-1.960784,-1.960784,3
-2.823529,-2.823529,-70.588235,-0.007843,-0.007843,-0.007843,-1.960784,-1.960784,-1.960784,3
-2.823529,-2.823529,-70.588235,-0.007843,-0.007843,-0.007843,-1.960784,-1.960784,-1.960784,3
-2.823529,-2.823529,-70.588235,-0.007843,-0.007843,-0.007843,-1.960784,-1.960784,-1.960784,3
-2.823529,-2.823529,-70.588235,-0.007843,-0.007843,-0.007843,-1.960784,-1.960784,-1.960784,3
-2.823529,-2.823529,-70.588235,-0.007843,0.007843,-0.007843,-1.960784,-1.960784,-1.960784,3
-2.823529,-2.823529,-72,-0.007843,-0.007843,-0.007843,-1.960784,-1.960784,-1.960784,3
-2.823529,-2.823529,-72,-0.007843,-0.007843,-0.007843,-1.960784,-1.960784,-1.960784,3
-2.823529,-2.823529,-72,-0.007843,-0.007843,-0.007843,-1.960784,-1.960784,-1.960784,3
-2.823529,-2.823529,-72,-0.007843,-0.007843,-0.007843,-1.960784,-1.960784,-1.960784,3
-2.823529,-2.823529,-72,-0.007843,0.007843,-0.007843,-1.960784,-1.960784,-1.960784,3
-2.823529,-2.823529,-72,-0.007843,-0.007843,-0.007843,-1.960784,-1.960784,-1.960784,3
-2.823529,-2.823529,-72,-0.007843,-0.007843,-0.007843,-1.960784,-1.960784,-1.960784,3
-2.823529,-2.823529,-72,-0.007843,-0.007843,-0.007843,-1.960784,-1.960784,-1.960784,3
-2.823529,-2.823529,-72,-0.007843,-0.007843,-0.007843,-1.960784,-1.960784,-1.960784,3
-2.823529,-2.823529,-72,-0.007843,-0.007843,-0.007843,-1.960784,-1.960784,-1.960784,3
-2.823529,-2.823529,-72,-0.007843,-0.007843,-0.007843,-1.960784,-1.960784,-1.960784,3
-2.823529,-2.823529,-72,-0.007843,-0.007843,-0.007843,-1.960784,-1.960784,-1.960784,3
-2.823529,-2.823529,-72,-0.007843,-0.007843,-0.007843,-1.960784,-1.960784,-1.960784,3
-2.823529,-2.823529,-72,-0.007843,-0.007843,-0.007843,-1.960784,-1.960784,-1.960784,3
-2.823529,-2.823529,-72,-0.007843,-0.007843,-0.007843,-1.960784,-1.960784,-1.960784,3
-2.823529,-2.823529,-72,-0.007843,0.007843,-0.007843,-1.960784,-1.960784,-1.960784,3
-2.823529,-2.823529,-72,-0.007843,-0.007843,-0.007843,-1.960784,-1.960784,-1.960784,3
-2.823529,-2.823529,-72,-0.007843,-0.007843,-0.007843,-1.960784,-1.960784,-1.960784,3
-2.823529,-2.823529,-72,-0.007843,-0.007843,-0.007843,-1.960784,-1.960784,-1.960784,3
-2.823529,-2.823529,-72,-0.007843,-0.007843,-0.007843,-1.960784,-1.960784,-1.960784,3
-2.823529,-2.823529,-72,-0.007843,0.007843,-0.007843,-1.960784,-1.960784,-1.960784,3
-2.823529,-2.823529,-72,-0.007843,-0.007843,-0.007843,-1.960784,-1.960784,-1.960784,3
-2.823529,-2.823529,-72,-0.007843,-0.007843,-0.007843,-1.960784,-1.960784,-1.960784,3
-2.823529,-2.823529,-72,-0.007843,-0.007843,-0.007843,-1.960784,-1.960784,-1.960784,3
-2.823529,-2.823529,-72,-0.007843,-0.007843,-0.007843,-1.960784,-1.960784,-1.960784,3
-2.823529,-2.823529,-73.411765,-0.007843,-0.007843,-0.007843,-1.960784,-1.960784,-1.960784,3
-2.823529,-2.823529,-73.411765,-0.007843,-0.007843,-0.007843,-1.960784,-1.960784,-1.960784,3
-2.823529,-2.823529,-73.411765,-0.007843,0.007843,-0.007843,-1.960784,-1.960784,-1.960784,3
-2.823529,-2.823529,-73.411765,-0.007843,-0.007843,-0.007843,-1.960784,-1.960784,-1.960784,3
-2.823529,-2.823529,-73.411765,-0.007843,-0.007843,-0.007843,-1.960784,-1.960784,-1.960784,3
-2.823529,-2.823529,-73.411765,-0.007843,-0.007843,-0.007843,-1.960784,-1.960784,-1.960784,3
-2.823529,-2.823529,-73.411765,-0.007843,-0.007843,-0.007843,-1.960784,-1.960784,-5.882353,3
-2.823529,-2.823529,-73.411765,-0.007843,-0.007843,-0.007843,-1.960784,-1.960784,-1.960784,3
-2.823529,-2.823529,-73.411765,-0.007843,-0.007843,-0.007843,-1.960784,-1.960784,-1.960784,3
-2.823529,-2.823529,-73.411765,-0.007843,-0.007843,-0.007843,-1.960784,-1.960784,-1.960784,3
-2.823529,-2.823529,-73.411765,-0.007843,-0.007843,-0.007843,-1.960784,-1.960784,-1.960784,3
-2.823529,-2.823529,-73.411765,-0.007843,0.007843,-0.007843,-1.960784,-1.960784,-1.960784,3
-2.823529,-2.823529,-73.411765,-0.007843,-0.007843,-0.007843,-1.960784,-1.960784,-1.960784,3
-2.823529,-2.823529,-73.411765,-0.007843,-0.007843,-0.023529,-1.960784,-1.960784,-1.960784,3
-2.823529,-2.823529,-73.411765,-0.007843,-0.007843,-0.007843,-1.960784,-1.960784,-1.960784,3
-2.823529,-2.823529,-73.411765,-0.007843,0.007843,-0.007843,-1.960784,-1.960784,-1.960784,3
-2.823529,-2.823529,-73.411765,-0.007843,-0.007843,-0.007843,-1.960784,-1.960784,-1.960784,3
-2.823529,-2.823529,-73.411765,-0.007843,-0.007843,-0.007843,-1.960784,-1.960784,-1.960784,3
-2.823529,-2.823529,-73.411765,-0.007843,0.007843,-0.007843,-1.960784,-1.960784,-1.960784,3
-2.823529,-2.823529,-73.411765,-0.007843,-0.007843,-0.007843,-1.960784,-1.960784,-1.960784,3
-2.823529,-2.823529,-73.411765,-0.007843,-0.007843,-0.007843,-1.960784,-1.960784,-1.960784,3
-2.823529,-2.823529,-73.411765,-0.007843,0.007843,-0.007843,-1.960784,-1.960784,-1.960784,3
-2.823529,-2.823529,-73.411765,-0.007843,-0.007843,-0.007843,-1.960784,-1.960784,-1.960784,3
-2.823529,-2.823529,-73.411765,-0.007843,-0.007843,-0.007843,-1.960784,-1.960784,-1.960784,3
-2.823529,-2.823529,-73.411765,-0.007843,-0.007843,-0.007843,-1.960784,-1.960784,-1.960784,3
-2.823529,-2.823529,-74.823529,-0.007843,-0.007843,-0.007843,-1.960784,-1.960784,-1.960784,3
-2.823529,-2.823529,-74.823529,-0.007843,-0.007843,-0.007843,-1.960784,-1.960784,-1.960784,3
-2.823529,-2.823529,-74.823529,-0.007843,-0.007843,-0.007843,-1.960784,-1.960784,-1.960784,3
-2.823529,-2.823529,-74.823529,-0.007843,-0.007843,-0.007843,-1.960784,-1.960784,-1.960784,3
-2.823529,-2.823529,-74.823529,-0.007843,-0.007843,-0.007843,-1.960784,-1.960784,-1.960784,3
-2.823529,-2.823529,-74.823529,-0.007843,-0.007843,-0.007843,-1.960784,-1.960784,-1.960784,3
-2.823529,-2.823529,-74.823529,-0.007843,-0.007843,-0.007843,-1.960784,-1.960784,-1.960784,3
-2.823529,-2.823529,-74.823529,-0.007843,-0.007843,-0.007843,-1.960784,-1.960784,-1.960784,3
-2.823529,-2.823529,-74.823529,-0.007843,-0.007843,-0.007843,-1.960784,-1.960784,-1.960784,3
-2.823529,-2.823529,-74.823529,-0.007843,-0.007843,-0.007843,-1.960784,-1.960784,-1.960784,3
-2.823529,-2.823529,-74.823529,-0.007843,0.007843,-0.007843,-1.960784,-1.960784,-1.960784,3
-2.823529,-2.823529,-74.823529,-0.007843,-0.007843,-0.007843,-1.960784,-1.960784,-1.960784,3
-2.823529,-2.823529,-74.823529,-0.007843,0.007843,-0.007843,-1.960784,-1.960784,-1.960784,3
-2.823529,-2.823529,-74.823529,-0.007843,-0.007843,-0.007843,-1.960784,-1.960784,-1.960784,3
-2.823529,-2.823529,-74.823529,-0.007843,-0.007843,-0.007843,-1.960784,-1.960784,-1.960784,3
-2.823529,-2.823529,-74.823529,-0.007843,-0.007843,-0.007843,-1.960784,-1.960784,-1.960784,3
-2.823529,-2.823529,-74.823529,-0.007843,-0.007843,-0.007843,-1.960784,-1.960784,-1.960784,3
-2.823529,-2.823529,-74.823529,-0.007843,0.007843,-0.007843,-1.960784,-1.960784,-1.960784,3
-2.823529,-2.823529,-74.823529,-0.007843,-0.007843,-0.007843,-1.960784,-1.960784,-1.960784,3
-2.823529,-2.823529,-74.823529,-0.007843,-0.007843,-0.007843,-1.960784,-1.960784,-1.960784,3
-2.823529,-2.823529,-74.823529,-0.007843,-0.007843,-0.007843,-1.960784,-1.960784,-1.960784,3
-2.823529,-2.823529,-74.823529,-0.007843,-0.007843,-0.007843,-1.960784,-1.960784,-1.960784,3
-2.823529,-2.823529,-74.823529,-0.007843,0.007843,-0.007843,-1.960784,-1.960784,-1.960784,3
-2.823529,-2.823529,-74.823529,-0.007843,-0.007843,-0.007843,-1.960784,-1.960784,-1.960784,3
-2.823529,-2.823529,-74.823529,-0.007843,0.007843,-0.007843,-1.960784,-1.960784,-1.960784,3
-2.823529,-2.823529,-76.235294,-0.007843,-0.007843,-0.007843,-1.960784,-1.960784,-1.960784,3
-2.823529,-2.823529,-76.235294,-0.007843,0.007843,-0.007843,-1.960784,-1.960784,-1.960784,3
-2.823529,-2.823529,-76.235294,-0.007843,-0.007843,-0.007843,-1.960784,-1.960784,-1.960784,3
-2.823529,-2.823529,-76.235294,-0.007843,-0.007843,-0.007843,-1.960784,-1.960784,-1.960784,3
-2.823529,-2.823529,-76.235294,-0.007843,-0.007843,-0.007843,-1.960784,-1.960784,-1.960784,3
-2.823529,-2.823529,-76.235294,-0.007843,-0.007843,-0.007843,-1.960784,-1.960784,-1.960784,3
-2.823529,-2.823529,-76.235294,-0.007843,-0.007843,-0.007843,-1.960784,-1.960784,-1.960784,3
-2.823529,-2.823529,-76.235294,-0.007843,-0.007843,-0.007843,-1.960784,-1.960784,-1.960784,3
-2.823529,-2.823529,-76.235294,-0.007843,-0.007843,-0.007843,-1.960784,-1.960784,-1.960784,3
-2.823529,-2.823529,-76.235294,-0.007843,-0.007843,-0.007843,-1.960784,-1.960784,-1.960784,3
-2.823529,-2.823529,-76.235294,-0.007843,-0.007843,-0.007843,-1.960784,-1.960784,-1.960784,3
-2.823529,-2.823529,-76.235294,-0.007843,-0.007843,-0.007843,-1.960784,-1.960784,-1.960784,3
-2.823529,-2.823529,-76.235294,-0.007843,0.007843,-0.007843,-1.960784,-1.960784,-1.960784,3
-2.823529,-2.823529,-76.235294,-0.007843,-0.007843,-0.007843,-1.960784,-1.960784,-1.960784,3
-2.823529,-2.823529,-76.235294,-0.007843,-0.007843,-0.007843,-1.960784,-1.960784,-1.960784,3
-2.823529,-2.823529,-76.235294,-0.007843,-0.007843,-0.007843,-1.960784,-1.960784,-1.960784,3
-2.823529,-2.823529,-76.235294,-0.007843,-0.007843,-0.007843,-1.960784,-1.960784,-1.960784,3
-2.823529,-2.823529,-76.235294,-0.007843,-0.007843,-0.007843,-1.960784,-1.960784,-1.960784,3
-2.823529,-2.823529,-76.235294,-0.007843,-0.007843,-0.007843,-1.960784,-1.960784,-1.960784,3
-2.823529,-2.823529,-76.235294,-0.007843,-0.007843,-0.007843,-1.960784,-1.960784,-1.960784,3
-2.823529,-2.823529,-76.235294,-0.007843,-0.007843,-0.007843,-1.960784,-1.960784,-1.960784,3
-2.823529,-2.823529,-76.235294,-0.007843,-0.007843,-0.007843,-1.960784,-1.960784,-1.960784,3
-2.823529,-2.823529,-76.235294,-0.007843,-0.007843,-0.007843,-1.960784,-1.960784,-1.960784,3
-2.823529,-2.823529,-76.235294,-0.007843,0.007843,-0.007843,-1.960784,-1.960784,-1.960784,3
-2.823529,-2.823529,-77.647059,-0.007843,0.007843,-0.007843,-1.960784,-1.960784,-1.960784,3
-2.823529,-2.823529,-77.647059,-0.007843,-0.007843,-0.007843,-1.960784,-1.960784,-1.960784,3
-2.823529,-2.823529,-77.647059,-0.007843,-0.007843,-0.007843,-1.960784,-1.960784,-1.960784,3
-2.823529,-2.823529,-77.647059,-0.007843,-0.007843,-0.007843,-1.960784,-1.960784,-1.960784,3
-2.823529,-2.823529,-77.647059,-0.007843,0.007843,-0.007843,-1.960784,-1.960784,-1.960784,3
-2.823529,-2.823529,-77.647059,-0.007843,-0.007843,-0.007843,-1.960784,-1.960784,-1.960784,3
-2.823529,-2.823529,-77.647059,-0.007843,-0.007843,-0.007843,-1.960784,-1.960784,-1.960784,3
-2.823529,-2.823529,-77.647059,-0.007843,-0.007843,-0.007843,-1.960784,-1.960784,-1.960784,3
-2.823529,-2.823529,-77.647059,-0.007843,-0.007843,-0.007843,-1.960784,-1.960784,-1.960784,3
-2.823529,-2.823529,-77.647059,-0.007843,-0.007843,-0.007843,-1.960784,-1.960784,-1.960784,3
-2.823529,-2.823529,-77.647059,-0.007843,-0.007843,-0.007843,-1.960784,-1.960784,-1.960784,3
-2.823529,-2.823529,-77.647059,-0.007843,-0.007843,-0.007843,-1.960784,-1.960784,-5.882353,3
-2.823529,-2.823529,-77.647059,-0.007843,-0.007843,-0.007843,-1.960784,-1.960784,-1.960784,3
-2.823529,-2.823529,-77.647059,-0.007843,-0.007843,-0.007843,-1.960784,-1.960784,-1.960784,3
-2.823529,-2.823529,-77.647059,-0.007843,0.007843,-0.007843,-1.960784,-1.960784,-1.960784,3
-2.823529,-2.823529,-77.647059,-0.007843,-0.007843,-0.007843,-1.960784,-1.960784,-1.960784,3
-2.823529,-2.823529,-77.647059,-0.007843,-0.007843,-0.007843,-1.960784,-1.960784,-1.960784,3
-2.823529,-2.823529,-77.647059,-0.007843,0.007843,-0.007843,-1.960784,-1.960784,-5.882353,3
-2.823529,-2.823529,-77.647059,-0.007843,-0.007843,-0.007843,-1.960784,-1.960784,-1.960784,3
-2.823529,-2.823529,-77.647059,-0.007843,-0.007843,-0.007843,-1.960784,-1.960784,-1.960784,3
-2.823529,-2.823529,-77.647059,-0.007843,-0.007843,-0.007843,-1.960784,-1.960784,-1.960784,3
-2.823529,-2.823529,-77.647059,-0.007843,-0.007843,-0.007843,-1.960784,-1.960784,-1.960784,3
-2.823529,-2.823529,-77.647059,-0.007843,-0.007843,-0.007843,-1.960784,-1.960784,-1.960784,3
-2.823529,-2.823529,-77.647059,-0.007843,-0.007843,-0.007843,-1.960784,-1.960784,-1.960784,3
-2.823529,-2.823529,-77.647059,-0.007843,-0.007843,-0.007843,-1.960784,-1.960784,-1.960784,3
-2.823529,-2.823529,-79.058824,-0.007843,0.007843,-0.007843,-1.960784,-1.960784,-1.960784,3
-2.823529,-2.823529,-79.058824,-0.007843,-0.007843,-0.007843,-1.960784,-1.960784,-1.960784,3
-2.823529,-2.823529,-79.058824,-0.007843,-0.007843,-0.007843,-1.960784,-1.960784,-1.960784,3
-2.823529,-2.823529,-79.058824,-0.007843,-0.007843,-0.007843,-1.960784,-1.960784,-1.960784,3
-2.823529,-2.823529,-79.058824,-0.007843,-0.007843,-0.007843,-1.960784,-1.960784,-1.960784,3
-2.823529,-2.823529,-79.058824,-0.007843,-0.007843,-0.007843,-1.960784,-1.960784,-1.960784,3
-2.823529,-2.823529,-79.058824,-0.007843,-0.007843,-0.007843,-1.960784,-1.960784,-1.960784,3
-2.823529,-2.823529,-79.058824,-0.007843,-0.007843,-0.007843,-1.960784,-1.960784,-1.960784,3
-2.823529,-2.823529,-79.058824,-0.007843,-0.007843,-0.007843,-1.960784,-1.960784,-1.960784,3
-2.823529,-2.823529,-79.058824,-0.007843,-0.007843,-0.007843,-1.960784,-1.960784,-1.960784,3
-2.823529,-2.823529,-79.058824,-0.007843,-0.007843,-0.007843,-1.960784,-1.960784,-1.960784,3
-2.823529,-2.823529,-79.058824,-0.007843,-0.007843,-0.007843,-1.960784,-1.960784,-1.960784,3
-2.823529,-2.823529,-79.058824,-0.007843,-0.007843,-0.007843,-1.960784,-1.960784,-1.960784,3
-2.823529,-2.823529,-79.058824,-0.007843,-0.007843,-0.007843,-1.960784,-1.960784,-1.960784,3
-2.823529,-2.823529,-79.058824,-0.007843,-0.007843,-0.007843,-1.960784,-1.960784,-1.960784,3
-2.823529,-2.823529,-79.058824,-0.007843,-0.007843,-0.007843,-1.960784,-1.960784,-1.960784,3
-2.823529,-2.823529,-79.058824,-0.007843,-0.007843,-0.007843,-1.960784,-1.960784,-1.960784,3
-2.823529,-2.823529,-79.058824,-0.007843,-0.007843,-0.007843,-1.960784,-1.960784,-1.960784,3
-2.823529,-2.823529,-79.058824,-0.007843,-0.007843,-0.007843,-1.960784,-1.960784,-1.960784,3
-2.823529,-2.823529,-79.058824,-0.007843,-0.007843,-0.007843,-1.960784,-1.960784,-1.960784,3
-2.823529,-2.823529,-79.058824,-0.007843,-0.007843,-0.007843,-1.960784,-1.960784,-5.882353,3
-2.823529,-2.823529,-79.058824,-0.007843,-0.007843,-0.007843,-1.960784,-1.960784,-1.960784,3
-2.823529,-2.823529,-79.058824,-0.007843,0.007843,-0.007843,-1.960784,-1.960784,-1.960784,3
-2.823529,-2.823529,-79.058824,-0.007843,-0.007843,0.007843,-1.960784,-1.960784,-1.960784,3
-2.823529,-2.823529,-79.058824,-0.007843,-0.007843,-0.007843,-1.960784,-1.960784,-1.960784,3
-2.823529,-2.823529,-79.058824,-0.007843,-0.007843,-0.007843,-1.960784,-1.960784,-1.960784,3
-2.823529,-2.823529,-80.470588,-0.007843,-0.007843,-0.007843,-1.960784,-1.960784,-1.960784,3
-2.823529,-2.823529,-80.470588,-0.007843,-0.007843,-0.007843,-1.960784,-1.960784,-1.960784,3
-2.823529,-2.823529,-80.470588,-0.007843,-0.007843,-0.007843,-1.960784,-1.960784,-1.960784,3
-2.823529,-2.823529,-80.470588,-0.007843,-0.007843,-0.007843,-1.960784,-1.960784,-1.960784,3
-2.823529,-2.823529,-80.470588,-0.007843,-0.007843,-0.007843,-1.960784,-1.960784,-1.960784,3
-2.823529,-2.823529,-80.470588,-0.007843,-0.007843,-0.007843,-1.960784,-1.960784,-1.960784,3
-2.823529,-2.823529,-80.470588,-0.007843,-0.007843,-0.007843,-1.960784,-1.960784,-1.960784,3
-2.823529,-2.823529,-80.470588,-0.007843,0.007843,-0.007843,-1.960784,-1.960784,-1.960784,3
-2.823529,-2.823529,-80.470588,-0.007843,-0.007843,-0.007843,-1.960784,-1.960784,-1.960784,3
-2.823529,-2.823529,-80.470588,-0.007843,-0.007843,-0.007843,-1.960784,-1.960784,-1.960784,3
-2.823529,-2.823529,-80.470588,-0.007843,-0.007843,-0.007843,-1.960784,-1.960784,-1.960784,3
-2.823529,-2.823529,-80.470588,-0.007843,-0.007843,-0.007843,-1.960784,-1.960784,-1.960784,3
-2.823529,-2.823529,-80.470588,-0.007843,-0.007843,-0.007843,-1.960784,-1.960784,-1.960784,3
-2.823529,-2.823529,-80.470588,-0.007843,0.007843,-0.007843,-1.960784,-1.960784,-1.960784,3
-2.823529,-2.823529,-80.470588,-0.007843,-0.007843,-0.007843,-1.960784,-1.960784,-1.960784,3
-2.823529,-2.823529,-80.470588,-0.007843,-0.007843,-0.007843,-1.960784,-1.960784,-1.960784,3
-2.823529,-2.823529,-80.470588,-0.007843,-0.007843,-0.007843,-1.960784,-1.960784,-1.960784,3
-2.823529,-2.823529,-80.470588,-0.007843,-0.007843,-0.007843,-1.960784,-1.960784,-1.960784,3
-2.823529,-2.823529,-80.470588,-0.007843,-0.007843,-0.007843,-1.960784,-1.960784,-1.960784,3
-2.823529,-2.823529,-80.470588,-0.007843,-0.007843,-0.007843,-1.960784,-1.960784,-1.960784,3
-2.823529,-2.823529,-80.470588,-0.007843,0.007843,-0.007843,-1.960784,-1.960784,-1.960784,3
-2.823529,-2.823529,-80.470588,-0.007843,-0.007843,0.007843,-1.960784,-1.960784,-1.960784,3
-2.823529,-2.823529,-80.470588,-0.007843,-0.007843,-0.007843,-1.960784,-1.960784,-1.960784,3
-2.823529,-2.823529,-80.470588,-0.007843,-0.007843,-0.007843,-1.960784,-1.960784,-1.960784,3
-2.823529,-2.823529,-80.470588,-0.007843,-0.007843,-0.007843,-1.960784,-1.960784,-1.960784,3
-2.823529,-2.823529,-81.882353,-0.007843,-0.007843,-0.007843,-1.960784,-1.960784,-1.960784,3
-2.823529,-2.823529,-81.882353,-0.007843,-0.007843,-0.007843,-1.960784,-1.960784,-1.960784,3
-2.823529,-2.823529,-81.882353,-0.007843,-0.007843,-0.007843,-1.960784,-1.960784,-1.960784,3
-2.823529,-2.823529,-81.882353,-0.007843,-0.007843,-0.007843,-1.960784,-1.960784,-1.960784,3
-2.823529,-2.823529,-81.882353,-0.007843,-0.007843,-0.007843,-1.960784,-1.960784,-1.960784,3
-2.823529,-2.823529,-81.882353,-0.007843,-0.007843,-0.007843,-1.960784,-1.960784,-1.960784,3
-2.823529,-2.823529,-81.882353,-0.007843,-0.007843,-0.007843,-1.960784,-1.960784,-1.960784,3
-2.823529,-2.823529,-81.882353,-0.007843,-0.007843,-0.007843,-1.960784,-1.960784,-1.960784,3
-2.823529,-2.823529,-81.882353,-0.007843,-0.007843,-0.007843,-1.960784,-1.960784,-1.960784,3
-2.823529,-2.823529,-81.882353,-0.007843,-0.007843,-0.007843,-1.960784,-1.960784,-1.960784,3
-2.823529,-2.823529,-81.882353,-0.007843,-0.007843,-0.007843,-1.960784,-1.960784,-1.960784,3
-2.823529,-2.823529,-81.882353,-0.007843,-0.007843,-0.007843,-1.960784,-1.960784,-1.960784,3
-2.823529,-2.823529,-81.882353,-0.007843,-0.007843,-0.007843,-1.960784,-1.960784,-1.960784,3
-2.823529,-2.823529,-81.882353,-0.007843,-0.007843,-0.007843,-1.960784,-1.960784,-5.882353,3
-2.823529,-2.823529,-81.882353,-0.007843,0.007843,-0.007843,-1.960784,-1.960784,-1.960784,3
-2.823529,-2.823529,-81.882353,-0.007843,-0.007843,-0.007843,-1.960784,-1.960784,-1.960784,3
-2.823529,-2.823529,-81.882353,-0.007843,-0.007843,-0.007843,-1.960784,-1.960784,-1.960784,3
-2.823529,-2.823529,-81.882353,-0.007843,-0.007843,-0.007843,-1.960784,-1.960784,-1.960784,3
-2.823529,-2.823529,-81.882353,-0.007843,-0.007843,-0.007843,-1.960784,-1.960784,-1.960784,3
-2.823529,-2.823529,-81.882353,-0.007843,-0.007843,-0.007843,-1.960784,-1.960784,-1.960784,3
-2.823529,-2.823529,-81.882353,-0.007843,-0.007843,-0.007843,-1.960784,-1.960784,-1.960784,3
-2.823529,-2.823529,-81.882353,-0.007843,-0.007843,-0.007843,-1.960784,-1.960784,-1.960784,3
-2.823529,-2.823529,-81.882353,-0.007843,-0.007843,-0.007843,-1.960784,-1.960784,-1.960784,3
-2.823529,-2.823529,-81.882353,-0.007843,-0.007843,-0.007843,-1.960784,-1.960784,-1.960784,3
-2.823529,-2.823529,-81.882353,-0.007843,-0.007843,-0.007843,-1.960784,-1.960784,-1.960784,3
-2.823529,-2.823529,-83.294118,-0.007843,-0.007843,-0.007843,-1.960784,-1.960784,-1.960784,3
-2.823529,-2.823529,-83.294118,-0.007843,0.007843,-0.007843,-1.960784,-1.960784,-1.960784,3
-2.823529,-2.823529,-83.294118,-0.007843,-0.007843,0.007843,-1.960784,-1.960784,-1.960784,3
-2.823529,-2.823529,-83.294118,-0.007843,-0.007843,-0.007843,-1.960784,-1.960784,-1.960784,3
-2.823529,-2.823529,-83.294118,-0.007843,-0.007843,-0.007843,-1.960784,-1.960784,-1.960784,3
-2.823529,-2.823529,-83.294118,-0.007843,-0.007843,-0.007843,-1.960784,-1.960784,-1.960784,3
-2.823529,-2.823529,-83.294118,-0.007843,-0.007843,-0.007843,-1.960784,-1.960784,-1.960784,3
-2.823529,-2.823529,-83.294118,-0.007843,-0.007843,-0.007843,-1.960784,-1.960784,-1.960784,3
-2.823529,-2.823529,-83.294118,-0.007843,-0.007843,-0.007843,-1.960784,-1.960784,-1.960784,3
-2.823529,-2.823529,-83.294118,-0.007843,-0.007843,-0.007843,-1.960784,-1.960784,-1.960784,3
-2.823529,-2.823529,-83.294118,-0.007843,-0.007843,-0.007843,-1.960784,-1.960784,-1.960784,3
-2.823529,-2.823529,-83.294118,-0.007843,-0.007843,-0.007843,-1.960784,-1.960784,-1.960784,3
-2.823529,-2.823529,-83.294118,-0.007843,-0.007843,-0.007843,-1.960784,-1.960784,-1.960784,3
-2.823529,-2.823529,-83.294118,-0.007843,-0.007843,-0.007843,-1.960784,-1.960784,-1.960784,3
-2.823529,-2.823529,-83.294118,-0.007843,-0.007843,-0.007843,-1.960784,-1.960784,-1.960784,3
-2.823529,-2.823529,-83.294118,-0.007843,-0.007843,-0.007843,-1.960784,-1.960784,-1.960784,3
-2.823529,-2.823529,-83.294118,-0.007843,0.007843,-0.007843,-1.960784,-1.960784,-1.960784,3
-2.823529,-2.823529,-83.294118,-0.007843,-0.007843,-0.007843,-1.960784,-1.960784,-1.960784,3
-2.823529,-2.823529,-83.294118,-0.007843,-0.007843,-0.007843,-1.960784,-1.960784,-1.960784,3
-2.823529,-2.823529,-83.294118,-0.007843,-0.007843,-0.007843,-1.960784,-1.960784,-1.960784,3
-2.823529,-2.823529,-83.294118,-0.007843,-0.007843,-0.007843,-1.960784,-1.960784,-1.960784,3
-2.823529,-2.823529,-83.294118,-0.007843,-0.007843,-0.007843,-1.960784,-1.960784,-1.960784,3
-2.823529,-2.823529,-83.294118,-0.007843,-0.007843,-0.007843,-1.960784,-1.960784,-1.960784,3
-2.823529,-2.823529,-83.294118,-0.007843,-0.007843,-0.007843,-1.960784,-1.960784,-1.960784,3
-2.823529,-2.823529,-83.294118,-0.007843,-0.007843,-0.007843,-1.960784,-1.960784,-1.960784,3
-2.823529,-2.823529,-83.294118,-0.007843,0.007843,-0.007843,-1.960784,-1.960784,-1.960784,3
-2.823529,-2.823529,-84.705882,-0.007843,-0.007843,-0.007843,-1.960784,-1.960784,-1.960784,3
-2.823529,-2.823529,-84.705882,-0.007843,-0.007843,-0.007843,-1.960784,-1.960784,-1.960784,3
-2.823529,-2.823529,-84.705882,-0.007843,-0.007843,-0.007843,-1.960784,-1.960784,-1.960784,3
-2.823529,-2.823529,-84.705882,-0.007843,-0.007843,-0.007843,-1.960784,-1.960784,-1.960784,3
-2.823529,-2.823529,-84.705882,-0.007843,-0.007843,-0.007843,-1.960784,-1.960784,-5.882353,3
-2.823529,-2.823529,-84.705882,-0.007843,-0.007843,-0.007843,-1.960784,-1.960784,-1.960784,3
-2.823529,-2.823529,-84.705882,-0.007843,-0.007843,-0.007843,-1.960784,-1.960784,-1.960784,3
-2.823529,-2.823529,-84.705882,-0.007843,-0.007843,-0.007843,-1.960784,-1.960784,-1.960784,3
-2.823529,-2.823529,-84.705882,-0.007843,-0.007843,-0.007843,-1.960784,-1.960784,-1.960784,3
-2.823529,-2.823529,-84.705882,-0.007843,-0.007843,-0.007843,-1.960784,-1.960784,-1.960784,3
-2.823529,-2.823529,-84.705882,-0.007843,-0.007843,-0.007843,-1.960784,-1.960784,-1.960784,3
-2.823529,-2.823529,-84.705882,-0.007843,-0.007843,-0.007843,-1.960784,-1.960784,-1.960784,3
-2.823529,-2.823529,-84.705882,-0.007843,-0.007843,-0.007843,-1.960784,-1.960784,-1.960784,3
-2.823529,-2.823529,-84.705882,-0.007843,-0.007843,-0.007843,-1.960784,-1.960784,-1.960784,3
-2.823529,-2.823529,-84.705882,-0.007843,-0.007843,-0.007843,-1.960784,-1.960784,-1.960784,3
-2.823529,-2.823529,-84.705882,-0.007843,-0.007843,-0.007843,-1.960784,-1.960784,-1.960784,3
-2.823529,-2.823529,-84.705882,-0.007843,-0.007843,-0.007843,-1.960784,-1.960784,-1.960784,3
-2.823529,-2.823529,-84.705882,-0.007843,-0.007843,-0.007843,-1.960784,-1.960784,-1.960784,3
-2.823529,-2.823529,-84.705882,-0.007843,-0.007843,-0.007843,-1.960784,-1.960784,-1.960784,3
-2.823529,-2.823529,-84.705882,-0.007843,-0.007843,-0.007843,-1.960784,-1.960784,-1.960784,3
-2.823529,-2.823529,-84.705882,-0.007843,0.007843,-0.007843,-1.960784,-1.960784,-1.960784,3
-2.823529,-2.823529,-84.705882,-0.007843,-0.007843,-0.007843,-1.960784,-1.960784,-1.960784,3
-2.823529,-2.823529,-84.705882,-0.007843,-0.007843,-0.007843,-1.960784,-1.960784,-1.960784,3
-2.823529,-2.823529,-84.705882,-0.007843,-0.007843,-0.007843,-1.960784,-1.960784,-1.960784,3
-2.823529,-2.823529,-84.705882,-0.007843,-0.007843,-0.007843,-1.960784,-1.960784,-1.960784,3
-2.823529,-2.823529,-86.117647,-0.007843,-0.007843,-0.007843,-1.960784,-1.960784,-1.960784,3
-2.823529,-2.823529,-86.117647,-0.007843,-0.007843,-0.007843,-1.960784,-1.960784,-1.960784,3
-2.823529,-2.823529,-86.117647,-0.007843,-0.007843,-0.007843,-1.960784,-1.960784,-1.960784,3
-2.823529,-2.823529,-86.117647,-0.007843,-0.007843,-0.007843,-1.960784,-1.960784,-1.960784,3
-2.823529,-2.823529,-86.117647,-0.007843,-0.007843,-0.007843,-1.960784,-1.960784,-1.960784,3
-2.823529,-2.823529,-86.117647,-0.007843,-0.007843,-0.007843,-1.960784,-1.960784,-1.960784,3
-2.823529,-2.823529,-86.117647,-0.007843,-0.007843,-0.007843,-1.960784,-1.960784,-1.960784,3
-2.823529,-2.823529,-86.117647,-0.007843,-0.007843,-0.007843,-1.960784,-1.960784,-1.960784,3
-2.823529,-2.823529,-86.117647,-0.007843,-0.007843,-0.007843,-1.960784,-1.960784,-1.960784,3
-2.823529,-2.823529,-86.117647,-0.007843,-0.007843,-0.007843,-1.960784,-1.960784,-1.960784,3
-2.823529,-2.823529,-86.117647,-0.007843,-0.007843,-0.007843,-1.960784,-1.960784,-1.960784,3
-2.823529,-2.823529,-86.117647,-0.007843,-0.007843,-0.007843,-1.960784,-1.960784,-1.960784,3
-2.823529,-2.823529,-86.117647,-0.007843,0.007843,-0.007843,-1.960784,-1.960784,-1.960784,3
-2.823529,-2.823529,-86.117647,-0.007843,-0.007843,-0.007843,-1.960784,-1.960784,-1.960784,3
-2.823529,-2.823529,-86.117647,-0.007843,0.007843,-0.007843,-1.960784,-1.960784,-1.960784,3
-2.823529,-2.823529,-86.117647,-0.007843,-0.007843,-0.007843,-1.960784,-1.960784,-1.960784,3
-2.823529,-2.823529,-86.117647,-0.007843,-0.007843,-0.007843,-1.960784,-1.960784,-1.960784,3
-2.823529,-2.823529,-86.117647,-0.007843,-0.007843,-0.007843,-1.960784,-1.960784,-1.960784,3
-2.823529,-2.823529,-86.117647,-0.007843,-0.007843,-0.007843,-1.960784,-1.960784,-1.960784,3
-2.823529,-2.823529,-86.117647,-0.007843,-0.007843,-0.007843,-1.960784,-1.960784,-1.960784,3
-2.823529,-2.823529,-86.117647,-0.007843,-0.007843,-0.007843,-1.960784,-1.960784,-1.960784,3
-2.823529,-2.823529,-86.117647,-0.007843,-0.007843,-0.007843,-1.960784,-1.960784,-5.882353,3
-2.823529,-2.823529,-86.117647,-0.007843,-0.007843,-0.007843,-1.960784,-1.960784,-1.960784,3
-2.823529,-2.823529,-86.117647,-0.007843,0.007843,-0.007843,-1.960784,-1.960784,-1.960784,3
-2.823529,-2.823529,-86.117647,-0.007843,-0.007843,-0.007843,-1.960784,-1.960784,-1.960784,3
-2.823529,-2.823529,-87.529412,-0.007843,-0.007843,-0.007843,-1.960784,-1.960784,-1.960784,3
-2.823529,-2.823529,-87.529412,-0.007843,-0.007843,-0.007843,-1.960784,-1.960784,-1.960784,3
-2.823529,-2.823529,-87.529412,-0.007843,-0.007843,-0.007843,-1.960784,-1.960784,-1.960784,3
-2.823529,-2.823529,-87.529412,-0.007843,-0.007843,-0.007843,-1.960784,-1.960784,-1.960784,3
-2.823529,-2.823529,-87.529412,-0.007843,-0.007843,-0.007843,-1.960784,-1.960784,-1.960784,3
-2.823529,-2.823529,-87.529412,-0.007843,-0.007843,-0.007843,-1.960784,-1.960784,-1.960784,3
-2.823529,-2.823529,-87.529412,-0.007843,-0.007843,-0.007843,-1.960784,-1.960784,-1.960784,3
-2.823529,-2.823529,-87.529412,-0.007843,-0.007843,-0.007843,-1.960784,-1.960784,-1.960784,3
-2.823529,-2.823529,-87.529412,-0.007843,-0.007843,-0.007843,-1.960784,-1.960784,-1.960784,3
-2.823529,-2.823529,-87.529412,-0.007843,-0.007843,-0.007843,-1.960784,-1.960784,-1.960784,3
-2.823529,-2.823529,-87.529412,-0.007843,-0.007843,-0.007843,-1.960784,-1.960784,-1.960784,3
-2.823529,-2.823529,-87.529412,-0.007843,-0.007843,-0.007843,-1.960784,-1.960784,-5.882353,3
-2.823529,-2.823529,-87.529412,-0.007843,-0.007843,-0.007843,-1.960784,-1.960784,-1.960784,3
-2.823529,-2.823529,-87.529412,-0.007843,-0.007843,-0.007843,-1.960784,-1.960784,-1.960784,3
-2.823529,-2.823529,-87.529412,-0.007843,-0.007843,-0.007843,-1.960784,-1.960784,-1.960784,3
-2.823529,-2.823529,-87.529412,-0.007843,-0.007843,-0.007843,-1.960784,-1.960784,-1.960784,3
-2.823529,-2.823529,-87.529412,-0.007843,-0.007843,-0.007843,-1.960784,-1.960784,-1.960784,3
-2.823529,-2.823529,-87.529412,-0.007843,-0.007843,-0.007843,-1.960784,-1.960784,-1.960784,3
-2.823529,-2.823529,-87.529412,-0.007843,-0.007843,-0.007843,-1.960784,-1.960784,-1.960784,3
-2.823529,-2.823529,-87.529412,-0.007843,-0.007843,-0.007843,-1.960784,-1.960784,-1.960784,3
-2.823529,-2.823529,-87.529412,-0.007843,-0.007843,-0.007843,-1.960784,-1.960784,-1.960784,3
-2.823529,-2.823529,-87.529412,-0.007843,-0.007843,-0.007843,-1.960784,-1.960784,-1.960784,3
-2.823529,-2.823529,-87.529412,-0.007843,-0.007843,-0.007843,-1.960784,-1.960784,-1.960784,3
-2.823529,-2.823529,-87.529412,-0.007843,-0.007843,-0.007843,-1.960784,-1.960784,-1.960784,3
-2.823529,-2.823529,-87.529412,-0.007843,-0.007843,-0.007843,-1.960784,-1.960784,-1.960784,3
-2.823529,-2.823529,-88.941176,-0.007843,-0.007843,-0.007843,-1.960784,-1.960784,-1.960784,3
-2.823529,-2.823529,-88.941176,-0.007843,-0.007843,-0.007843,-1.960784,-1.960784,-1.960784,3
-2.823529,-2.823529,-88.941176,-0.007843,-0.007843,-0.007843,-1.960784,-1.960784,-1.960784,3
-2.823529,-2.823529,-88.941176,-0.007843,-0.007843,-0.007843,-1.960784,-1.960784,-1.960784,3
-2.823529,-2.823529,-88.941176,-0.007843,-0.007843,-0.007843,-1.960784,-1.960784,-1.960784,3
-2.823529,-2.823529,-88.941176,-0.007843,-0.007843,-0.007843,-1.960784,-1.960784,-1.960784,3
-2.823529,-2.823529,-88.941176,-0.007843,-0.007843,-0.023529,-1.960784,-1.960784,-1.960784,3
-2.823529,-2.823529,-88.941176,-0.007843,-0.007843,-0.007843,-1.960784,-1.960784,-1.960784,3
-2.823529,-2.823529,-88.941176,-0.007843,-0.007843,-0.007843,-1.960784,-1.960784,-1.960784,3
-2.823529,-2.823529,-88.941176,-0.007843,-0.007843,-0.007843,-1.960784,-1.960784,-1.960784,3
-2.823529,-2.823529,-88.941176,-0.007843,-0.007843,-0.007843,-1.960784,-1.960784,-1.960784,3
-2.823529,-2.823529,-88.941176,-0.007843,-0.007843,-0.007843,-1.960784,-1.960784,-1.960784,3
-2.823529,-2.823529,-88.941176,-0.007843,-0.007843,-0.007843,-1.960784,-1.960784,-1.960784,3
-2.823529,-2.823529,-88.941176,-0.007843,-0.007843,-0.007843,-1.960784,-1.960784,-1.960784,3
-2.823529,-2.823529,-88.941176,-0.007843,0.007843,-0.007843,-1.960784,-1.960784,-1.960784,3
-2.823529,-2.823529,-88.941176,-0.007843,-0.007843,-0.007843,-1.960784,-1.960784,-1.960784,3
-2.823529,-2.823529,-88.941176,-0.007843,-0.007843,-0.007843,-1.960784,-1.960784,-1.960784,3
-2.823529,-2.823529,-88.941176,-0.007843,-0.007843,-0.007843,-1.960784,-1.960784,-1.960784,3
-2.823529,-2.823529,-88.941176,-0.007843,-0.007843,-0.007843,-1.960784,-1.960784,-1.960784,3
-2.823529,-2.823529,-88.941176,-0.007843,-0.007843,-0.007843,-1.960784,-1.960784,-1.960784,3
-2.823529,-2.823529,-88.941176,-0.007843,-0.007843,-0.007843,-1.960784,-1.960784,-1.960784,3
-2.823529,-2.823529,-88.941176,-0.007843,-0.007843,-0.007843,-1.960784,-1.960784,-1.960784,3
-2.823529,-2.823529,-88.941176,-0.007843,-0.007843,-0.007843,-1.960784,-1.960784,-1.960784,3
-2.823529,-2.823529,-88.941176,-0.007843,-0.007843,-0.007843,-1.960784,-1.960784,-1.960784,3
-2.823529,-2.823529,-88.941176,-0.007843,-0.007843,-0.007843,-1.960784,-1.960784,-1.960784,3
-2.823529,-2.823529,-88.941176,-0.007843,-0.007843,-0.007843,-1.960784,-1.960784,-1.960784,3
-2.823529,-2.823529,-90.352941,-0.007843,-0.007843,-0.007843,-1.960784,-1.960784,-1.960784,3
-2.823529,-2.823529,-90.352941,-0.007843,-0.007843,-0.007843,-1.960784,-1.960784,-1.960784,3
-2.823529,-2.823529,-90.352941,-0.007843,-0.007843,-0.007843,-1.960784,-1.960784,-1.960784,3
-2.823529,-2.823529,-90.352941,-0.007843,-0.007843,-0.007843,-1.960784,-1.960784,-1.960784,3
-2.823529,-2.823529,-90.352941,-0.007843,-0.007843,-0.007843,-1.960784,-1.960784,-1.960784,3
-2.823529,-2.823529,-90.352941,-0.007843,-0.007843,-0.007843,-1.960784,-1.960784,-1.960784,3
-2.823529,-2.823529,-90.352941,-0.007843,-0.007843,-0.007843,-1.960784,-1.960784,-1.960784,3
-2.823529,-2.823529,-90.352941,-0.007843,-0.007843,-0.007843,-1.960784,-1.960784,-1.960784,3
-2.823529,-2.823529,-90.352941,-0.007843,-0.007843,-0.007843,-1.960784,-1.960784,-1.960784,3
-2.823529,-2.823529,-90.352941,-0.007843,-0.007843,-0.007843,-1.960784,-1.960784,-1.960784,3
-2.823529,-2.823529,-90.352941,-0.007843,-0.007843,-0.007843,-1.960784,-1.960784,-1.960784,3
-2.823529,-2.823529,-90.352941,-0.007843,-0.007843,-0.007843,-1.960784,-1.960784,-1.960784,3
-2.823529,-2.823529,-90.352941,-0.007843,-0.007843,-0.007843,-1.960784,-1.960784,-1.960784,3
-2.823529,-2.823529,-90.352941,-0.007843,-0.007843,-0.007843,-1.960784,-1.960784,-1.960784,3
-2.823529,-2.823529,-90.352941,-0.007843,-0.007843,-0.007843,-1.960784,-1.960784,-1.960784,3
-2.823529,-2.823529,-90.352941,-0.007843,0.007843,-0.007843,-1.960784,-1.960784,-1.960784,3
-2.823529,-2.823529,-90.352941,-0.007843,-0.007843,-0.007843,-1.960784,-1.960784,-5.882353,3
-2.823529,-2.823529,-90.352941,-0.007843,-0.007843,-0.007843,-1.960784,-1.960784,-1.960784,3
-2.823529,-2.823529,-90.352941,-0.007843,-0.007843,-0.007843,-1.960784,-1.960784,-1.960784,3
-2.823529,-2.823529,-90.352941,-0.007843,-0.007843,-0.007843,-1.960784,-1.960784,-1.960784,3
-2.823529,-2.823529,-90.352941,-0.007843,-0.007843,-0.007843,-1.960784,-1.960784,-1.960784,3
-2.823529,-2.823529,-90.352941,-0.007843,-0.007843,-0.007843,-1.960784,-1.960784,-1.960784,3
-2.823529,-2.823529,-90.352941,-0.007843,-0.007843,-0.023529,-1.960784,-1.960784,-1.960784,3
-2.823529,-2.823529,-90.352941,-0.007843,-0.007843,-0.007843,-1.960784,-1.960784,-1.960784,3
-2.823529,-2.823529,-90.352941,-0.007843,-0.007843,-0.007843,-1.960784,-1.960784,-1.960784,3
-2.823529,-2.823529,-91.764706,-0.007843,-0.007843,-0.007843,-1.960784,-1.960784,-1.960784,3
-2.823529,-2.823529,-91.764706,-0.007843,-0.007843,-0.007843,-1.960784,-1.960784,-1.960784,3
-2.823529,-2.823529,-91.764706,-0.007843,0.007843,-0.007843,-1.960784,-1.960784,-1.960784,3
-2.823529,-2.823529,-91.764706,-0.007843,-0.007843,-0.007843,-1.960784,-1.960784,-1.960784,3
-2.823529,-2.823529,-91.764706,-0.007843,-0.007843,-0.007843,-1.960784,-1.960784,-1.960784,3
-2.823529,-2.823529,-91.764706,-0.007843,-0.007843,-0.007843,-1.960784,-1.960784,-1.960784,3
-2.823529,-2.823529,-91.764706,-0.007843,-0.007843,-0.007843,-1.960784,-1.960784,-1.960784,3
-2.823529,-2.823529,-91.764706,-0.007843,-0.007843,-0.007843,-1.960784,-1.960784,-5.882353,3
-2.823529,-2.823529,-91.764706,-0.007843,-0.007843,-0.007843,-1.960784,-1.960784,-1.960784,3
-2.823529,-2.823529,-91.764706,-0.007843,0.007843,-0.007843,-1.960784,-1.960784,-1.960784,3
-2.823529,-2.823529,-91.764706,-0.007843,-0.007843,-0.007843,-1.960784,-1.960784,-1.960784,3
-2.823529,-2.823529,-91.764706,-0.007843,-0.007843,-0.007843,-1.960784,-1.960784,-1.960784,3
-2.823529,-2.823529,-91.764706,-0.007843,0.007843,-0.007843,-1.960784,-1.960784,-1.960784,3
-2.823529,-2.823529,-91.764706,-0.007843,-0.007843,-0.007843,-1.960784,-1.960784,-1.960784,3
-2.823529,-2.823529,-91.764706,-0.007843,-0.007843,-0.007843,-1.960784,-1.960784,-1.960784,3
-2.823529,-2.823529,-91.764706,-0.007843,-0.007843,-0.007843,-1.960784,-1.960784,-1.960784,3
-2.823529,-2.823529,-91.764706,-0.007843,-0.007843,-0.007843,-1.960784,-1.960784,-1.960784,3
-2.823529,-2.823529,-91.764706,-0.007843,-0.007843,-0.007843,-1.960784,-1.960784,-1.960784,3
-2.823529,-2.823529,-91.764706,-0.007843,-0.007843,0.007843,-1.960784,-1.960784,-1.960784,3
-2.823529,-2.823529,-91.764706,-0.007843,-0.007843,0.007843,-1.960784,-1.960784,-1.960784,3
-2.823529,-2.823529,-91.764706,-0.007843,-0.007843,-0.007843,-1.960784,-1.960784,-1.960784,3
-2.823529,-2.823529,-91.764706,-0.007843,-0.007843,-0.007843,-1.960784,-1.960784,-1.960784,3
-2.823529,-2.823529,-91.764706,-0.007843,-0.007843,-0.007843,-1.960784,-1.960784,-1.960784,3
-2.823529,-2.823529,-91.764706,-0.007843,0.007843,-0.007843,-1.960784,-1.960784,-1.960784,3
-2.823529,-2.823529,-91.764706,-0.007843,-0.007843,-0.007843,-1.960784,-1.960784,-1.960784,3
-2.823529,-2.823529,-93.176471,-0.007843,0.007843,-0.007843,-1.960784,-1.960784,-1.960784,3
-2.823529,-2.823529,-93.176471,-0.007843,-0.007843,-0.007843,-1.960784,-1.960784,-1.960784,3
-2.823529,-2.823529,-93.176471,-0.007843,-0.007843,-0.007843,-1.960784,-1.960784,-1.960784,3
-2.823529,-2.823529,-93.176471,-0.007843,-0.007843,-0.007843,-1.960784,-1.960784,-1.960784,3
-2.823529,-2.823529,-93.176471,-0.007843,-0.007843,-0.007843,-1.960784,-1.960784,-1.960784,3
-2.823529,-2.823529,-93.176471,-0.007843,-0.007843,-0.007843,-1.960784,-1.960784,-1.960784,3
-2.823529,-2.823529,-93.176471,-0.007843,-0.007843,-0.007843,-1.960784,-1.960784,-1.960784,3
-2.823529,-2.823529,-93.176471,-0.007843,-0.007843,-0.007843,-1.960784,-1.960784,-1.960784,3
-2.823529,-2.823529,-93.176471,-0.007843,-0.007843,-0.007843,-1.960784,-1.960784,-1.960784,3
-2.823529,-2.823529,-93.176471,-0.007843,-0.007843,-0.007843,-1.960784,-1.960784,-1.960784,3
-2.823529,-2.823529,-93.176471,-0.007843,-0.007843,-0.007843,-1.960784,-1.960784,-1.960784,3
-2.823529,-2.823529,-93.176471,-0.007843,-0.007843,-0.007843,-1.960784,-1.960784,-1.960784,3
-2.823529,-2.823529,-93.176471,-0.007843,-0.007843,-0.007843,-1.960784,-1.960784,-1.960784,3
-2.823529,-2.823529,-93.176471,-0.007843,-0.007843,-0.007843,-1.960784,-1.960784,-1.960784,3
-2.823529,-2.823529,-93.176471,-0.007843,-0.007843,-0.007843,-1.960784,-1.960784,-1.960784,3
-2.823529,-2.823529,-93.176471,-0.007843,-0.007843,-0.007843,-1.960784,-1.960784,-1.960784,3
-2.823529,-2.823529,-93.176471,-0.007843,-0.007843,-0.007843,-1.960784,-1.960784,-1.960784,3
-2.823529,-2.823529,-93.176471,-0.007843,0.007843,-0.007843,-1.960784,-1.960784,-1.960784,3
-2.823529,-2.823529,-93.176471,-0.007843,-0.007843,-0.007843,-1.960784,-1.960784,-1.960784,3
-2.823529,-2.823529,-93.176471,-0.007843,0.007843,-0.007843,-1.960784,-1.960784,-1.960784,3
-2.823529,-2.823529,-93.176471,-0.007843,-0.007843,-0.007843,-1.960784,-1.960784,-1.960784,3
-2.823529,-2.823529,-93.176471,-0.007843,-0.007843,-0.007843,-1.960784,-1.960784,-1.960784,3
-2.823529,-2.823529,-93.176471,-0.007843,-0.007843,-0.007843,-1.960784,-1.960784,-1.960784,3
-2.823529,-2.823529,-93.176471,-0.007843,-0.007843,-0.007843,-1.960784,-1.960784,-1.960784,3
-2.823529,-2.823529,-93.176471,-0.007843,-0.007843,-0.007843,-1.960784,-1.960784,-1.960784,3
-2.823529,-2.823529,-94.588235,-0.007843,-0.007843,-0.007843,-1.960784,-1.960784,-1.960784,3
-2.823529,-2.823529,-94.588235,-0.007843,-0.007843,-0.007843,-1.960784,-1.960784,-1.960784,3
-2.823529,-2.823529,-94.588235,-0.007843,-0.007843,-0.007843,-1.960784,-1.960784,-1.960784,3
-2.823529,-2.823529,-94.588235,-0.007843,-0.007843,-0.007843,-1.960784,-1.960784,-1.960784,3
-2.823529,-2.823529,-94.588235,-0.007843,-0.007843,-0.007843,-1.960784,-1.960784,-1.960784,3
-2.823529,-2.823529,-94.588235,-0.007843,-0.007843,-0.007843,-1.960784,-1.960784,-1.960784,3
-2.823529,-2.823529,-94.588235,-0.007843,-0.007843,-0.007843,-1.960784,-1.960784,-1.960784,3
-2.823529,-2.823529,-94.588235,-0.007843,-0.007843,-0.007843,-1.960784,-1.960784,-1.960784,3
-2.823529,-2.823529,-94.588235,-0.007843,-0.007843,-0.007843,-1.960784,-1.960784,-1.960784,3
-2.823529,-2.823529,-94.588235,-0.007843,-0.007843,-0.007843,-1.960784,-1.960784,-1.960784,3
-2.823529,-2.823529,-94.588235,-0.007843,-0.007843,-0.023529,-1.960784,-1.960784,-1.960784,3
-2.823529,-2.823529,-94.588235,-0.007843,-0.007843,-0.007843,-1.960784,-1.960784,-1.960784,3
-2.823529,-2.823529,-94.588235,-0.007843,-0.007843,-0.007843,-1.960784,-1.960784,-1.960784,3
-2.823529,-2.823529,-94.588235,-0.007843,-0.007843,-0.007843,-1.960784,-1.960784,-1.960784,3
-2.823529,-2.823529,-94.588235,-0.007843,-0.007843,-0.007843,-1.960784,-1.960784,-5.882353,3
-2.823529,-2.823529,-94.588235,-0.007843,-0.007843,-0.007843,-1.960784,-1.960784,-1.960784,3
-2.823529,-2.823529,-94.588235,-0.007843,-0.007843,-0.007843,-1.960784,-1.960784,-1.960784,3
-2.823529,-2.823529,-94.588235,-0.007843,-0.007843,-0.007843,-1.960784,-1.960784,-1.960784,3
-2.823529,-2.823529,-94.588235,-0.007843,0.007843,-0.007843,-1.960784,-1.960784,-1.960784,3
-2.823529,-2.823529,-94.588235,-0.007843,-0.007843,-0.007843,-1.960784,-1.960784,-1.960784,3
-2.823529,-2.823529,-94.588235,-0.007843,-0.007843,-0.007843,-1.960784,-1.960784,-1.960784,3
-2.823529,-2.823529,-94.588235,-0.007843,-0.007843,-0.007843,-1.960784,-1.960784,-1.960784,3
-2.823529,-2.823529,-94.588235,-0.007843,-0.007843,-0.007843,-1.960784,-1.960784,-5.882353,3
-2.823529,-2.823529,-94.588235,-0.007843,-0.007843,-0.007843,-1.960784,-1.960784,-1.960784,3
-2.823529,-2.823529,-94.588235,-0.007843,-0.007843,-0.007843,-1.960784,-1.960784,-1.960784,3
-2.823529,-2.823529,-96,-0.007843,0.007843,-0.007843,-1.960784,-1.960784,-1.960784,3
-2.823529,-2.823529,-96,-0.007843,-0.007843,-0.007843,-1.960784,-1.960784,-1.960784,3
-2.823529,-2.823529,-96,-0.007843,-0.007843,-0.007843,-1.960784,-1.960784,-1.960784,3
-2.823529,-2.823529,-96,-0.007843,0.007843,-0.007843,-1.960784,-1.960784,-1.960784,3
-2.823529,-2.823529,-96,-0.007843,-0.007843,-0.007843,-1.960784,-1.960784,-1.960784,3
-2.823529,-2.823529,-96,-0.007843,-0.007843,-0.007843,-1.960784,-1.960784,-1.960784,3
-2.823529,-2.823529,-96,-0.007843,-0.007843,-0.007843,-1.960784,-1.960784,-1.960784,3
-2.823529,-2.823529,-96,-0.007843,0.007843,-0.007843,-1.960784,-1.960784,-1.960784,3
-2.823529,-2.823529,-96,-0.007843,-0.007843,-0.007843,-1.960784,-1.960784,-1.960784,3
-2.823529,-2.823529,-96,-0.007843,-0.007843,-0.007843,-1.960784,-1.960784,-1.960784,3
-2.823529,-2.823529,-96,-0.007843,0.007843,-0.007843,-1.960784,-1.960784,-1.960784,3
-2.823529,-2.823529,-96,-0.007843,-0.007843,-0.007843,-1.960784,-1.960784,-1.960784,3
-2.823529,-2.823529,-96,-0.007843,-0.007843,-0.007843,-1.960784,-1.960784,-1.960784,3
-2.823529,-2.823529,-96,-0.007843,-0.007843,-0.007843,-1.960784,-1.960784,-1.960784,3
-2.823529,-2.823529,-96,-0.007843,-0.007843,-0.007843,-1.960784,-1.960784,-1.960784,3
-2.823529,-2.823529,-96,-0.007843,-0.007843,-0.007843,-1.960784,-1.960784,-1.960784,3
-2.823529,-2.823529,-96,-0.007843,-0.007843,-0.007843,-1.960784,-1.960784,-1.960784,3
-2.823529,-2.823529,-96,-0.007843,-0.007843,-0.007843,-1.960784,-1.960784,-1.960784,3
-2.823529,-2.823529,-96,-0.007843,-0.007843,-0.007843,-1.960784,-1.960784,-1.960784,3
-2.823529,-2.823529,-96,-0.007843,-0.007843,-0.007843,-1.960784,-1.960784,-1.960784,3
-2.823529,-2.823529,-96,-0.007843,-0.007843,-0.007843,-1.960784,-1.960784,-1.960784,3
-2.823529,-2.823529,-96,-0.007843,-0.007843,-0.007843,-1.960784,-1.960784,-1.960784,3
-2.823529,-2.823529,-96,-0.007843,-0.007843,-0.007843,-1.960784,-1.960784,-1.960784,3
-2.823529,-2.823529,-96,-0.007843,-0.007843,-0.007843,-1.960784,-1.960784,-1.960784,3
-2.823529,-2.823529,-96,-0.007843,-0.007843,-0.007843,-1.960784,-1.960784,-1.960784,3
-2.823529,-2.823529,-97.411765,-0.007843,0.007843,-0.007843,-1.960784,-1.960784,-1.960784,3
-2.823529,-2.823529,-97.411765,-0.007843,-0.007843,-0.007843,-1.960784,-1.960784,-1.960784,3
-2.823529,-2.823529,-97.411765,-0.007843,-0.007843,-0.007843,-1.960784,-1.960784,-1.960784,3
-2.823529,-2.823529,-97.411765,-0.007843,-0.007843,-0.007843,-1.960784,-1.960784,-1.960784,3
-2.823529,-2.823529,-97.411765,-0.007843,-0.007843,-0.007843,-1.960784,-1.960784,-1.960784,3
-2.823529,-2.823529,-97.411765,-0.007843,-0.007843,-0.007843,-1.960784,-1.960784,-1.960784,3
-2.823529,-2.823529,-97.411765,-0.007843,0.007843,-0.007843,-1.960784,-1.960784,-1.960784,3
-2.823529,-2.823529,-97.411765,-0.007843,-0.007843,-0.007843,-1.960784,-1.960784,-1.960784,3
-2.823529,-2.823529,-97.411765,-0.007843,-0.007843,-0.007843,-1.960784,-1.960784,-1.960784,3
-2.823529,-2.823529,-97.411765,-0.007843,-0.007843,-0.007843,-1.960784,-1.960784,-1.960784,3
-2.823529,-2.823529,-97.411765,-0.007843,-0.007843,-0.007843,-1.960784,-1.960784,-1.960784,3
-2.823529,-2.823529,-97.411765,-0.007843,-0.007843,-0.007843,-1.960784,-1.960784,-1.960784,3
-2.823529,-2.823529,-97.411765,-0.007843,-0.007843,-0.007843,-1.960784,-1.960784,-5.882353,3
-2.823529,-2.823529,-97.411765,-0.007843,-0.007843,-0.007843,-1.960784,-1.960784,-1.960784,3
-2.823529,-2.823529,-97.411765,-0.007843,-0.007843,-0.007843,-1.960784,-1.960784,-1.960784,3
-2.823529,-2.823529,-97.411765,-0.007843,-0.007843,-0.007843,-1.960784,-1.960784,-1.960784,3
-2.823529,-2.823529,-97.411765,-0.007843,-0.007843,-0.007843,-1.960784,-1.960784,-1.960784,3
-2.823529,-2.823529,-97.411765,-0.007843,-0.007843,-0.007843,-1.960784,-1.960784,-1.960784,3
-2.823529,-2.823529,-97.411765,-0.007843,-0.007843,-0.007843,-1.960784,-1.960784,-1.960784,3
-2.823529,-2.823529,-97.411765,-0.007843,-0.007843,-0.007843,-1.960784,-1.960784,-1.960784,3
-2.823529,-2.823529,-97.411765,-0.007843,-0.007843,-0.007843,-1.960784,-1.960784,-1.960784,3
-2.823529,-2.823529,-97.411765,-0.007843,-0.007843,-0.007843,-1.960784,-1.960784,-1.960784,3
-2.823529,-2.823529,-97.411765,-0.007843,-0.007843,-0.007843,-1.960784,-1.960784,-1.960784,3
-2.823529,-2.823529,-97.411765,-0.007843,0.007843,-0.007843,-1.960784,-1.960784,-1.960784,3
-2.823529,-2.823529,-97.411765,-0.007843,-0.007843,-0.007843,-1.960784,-1.960784,-1.960784,3
-2.823529,-2.823529,-98.823529,-0.007843,0.007843,-0.007843,-1.960784,-1.960784,-1.960784,3
-2.823529,-2.823529,-98.823529,-0.007843,-0.007843,-0.007843,-1.960784,-1.960784,-1.960784,3
-2.823529,-2.823529,-98.823529,-0.007843,-0.007843,-0.007843,-1.960784,-1.960784,-1.960784,3
-2.823529,-2.823529,-98.823529,-0.007843,0.007843,-0.007843,-1.960784,-1.960784,-1.960784,3
-2.823529,-2.823529,-98.823529,-0.007843,-0.007843,-0.007843,-1.960784,-1.960784,-1.960784,3
-2.823529,-2.823529,-98.823529,-0.007843,-0.007843,-0.007843,-1.960784,-1.960784,-1.960784,3
-2.823529,-2.823529,-98.823529,-0.007843,-0.007843,-0.007843,-1.960784,-1.960784,-1.960784,3
-2.823529,-2.823529,-98.823529,-0.007843,-0.007843,-0.007843,-1.960784,-1.960784,-1.960784,3
-2.823529,-2.823529,-98.823529,-0.007843,-0.007843,-0.007843,-1.960784,-1.960784,-1.960784,3
-2.823529,-2.823529,-98.823529,-0.007843,-0.007843,-0.007843,-1.960784,-1.960784,-1.960784,3
-2.823529,-2.823529,-98.823529,-0.007843,-0.007843,-0.007843,-1.960784,-1.960784,-1.960784,3
-2.823529,-2.823529,-98.823529,-0.007843,-0.007843,-0.007843,-1.960784,-1.960784,-1.960784,3
-2.823529,-2.823529,-98.823529,-0.007843,-0.007843,-0.007843,-1.960784,-1.960784,-1.960784,3
-2.823529,-2.823529,-98.823529,-0.007843,-0.007843,-0.007843,-1.960784,-1.960784,-1.960784,3
-2.823529,-2.823529,-98.823529,-0.007843,-0.007843,-0.007843,-1.960784,-1.960784,-1.960784,3
-2.823529,-2.823529,-98.823529,-0.007843,-0.007843,-0.007843,-1.960784,-1.960784,-1.960784,3
-2.823529,-2.823529,-98.823529,-0.007843,-0.007843,-0.007843,-1.960784,-1.960784,-1.960784,3
-2.823529,-2.823529,-98.823529,-0.007843,-0.007843,-0.007843,-1.960784,-1.960784,-1.960784,3
-2.823529,-2.823529,-98.823529,-0.007843,-0.007843,-0.007843,-1.960784,-1.960784,-1.960784,3
-2.823529,-2.823529,-98.823529,-0.007843,-0.007843,-0.007843,-1.960784,-1.960784,-1.960784,3
-2.823529,-2.823529,-98.823529,-0.007843,-0.007843,-0.007843,-1.960784,-1.960784,-1.960784,3
-2.823529,-2.823529,-98.823529,-0.007843,-0.007843,-0.007843,-1.960784,-1.960784,-1.960784,3
-2.823529,-2.823529,-98.823529,-0.007843,-0.007843,-0.007843,-1.960784,-1.960784,-1.960784,3
-2.823529,-2.823529,-98.823529,-0.007843,-0.007843,-0.007843,-1.960784,-1.960784,-1.960784,3
-2.823529,-2.823529,-98.823529,-0.007843,-0.007843,-0.007843,-1.960784,-1.960784,-1.960784,3
-2.823529,-2.823529,-100.235294,-0.007843,-0.007843,-0.007843,-1.960784,-1.960784,-1.960784,3
-2.823529,-2.823529,-100.235294,-0.007843,-0.007843,-0.007843,-1.960784,-1.960784,-1.960784,3
-2.823529,-2.823529,-100.235294,-0.007843,-0.007843,-0.007843,-1.960784,-1.960784,-1.960784,3
-2.823529,-2.823529,-100.235294,-0.007843,-0.007843,-0.007843,-1.960784,-1.960784,-1.960784,3
-2.823529,-2.823529,-100.235294,-0.007843,-0.007843,-0.007843,-1.960784,-1.960784,-1.960784,3
-2.823529,-2.823529,-100.235294,-0.007843,-0.007843,-0.007843,-1.960784,-1.960784,-1.960784,3
-2.823529,-2.823529,-100.235294,-0.007843,-0.007843,-0.007843,-1.960784,-1.960784,-1.960784,3
-2.823529,-2.823529,-100.235294,-0.007843,-0.007843,-0.007843,-1.960784,-1.960784,-1.960784,3
-2.823529,-2.823529,-100.235294,-0.007843,-0.007843,-0.007843,-1.960784,-1.960784,-1.960784,3
-2.823529,-2.823529,-100.235294,-0.007843,-0.007843,-0.007843,-1.960784,-1.960784,-1.960784,3
-2.823529,-2.823529,-100.235294,-0.007843,0.007843,-0.007843,-1.960784,-1.960784,-1.960784,3
-2.823529,-2.823529,-100.235294,-0.007843,-0.007843,-0.007843,-1.960784,-1.960784,-1.960784,3
-2.823529,-2.823529,-100.235294,-0.007843,-0.007843,-0.007843,-1.960784,-1.960784,-1.960784,3
-2.823529,-2.823529,-100.235294,-0.007843,-0.007843,-0.007843,-1.960784,-1.960784,-1.960784,3
-2.823529,-2.823529,-100.235294,-0.007843,-0.007843,-0.007843,-1.960784,-1.960784,-1.960784,3
-2.823529,-2.823529,-100.235294,-0.007843,-0.007843,-0.007843,-1.960784,-1.960784,-1.960784,3
-2.823529,-2.823529,-100.235294,-0.007843,-0.007843,-0.007843,-1.960784,-1.960784,-1.960784,3
-2.823529,-2.823529,-100.235294,-0.007843,-0.007843,-0.007843,-1.960784,-1.960784,-1.960784,3
-2.823529,-2.823529,-100.235294,-0.007843,-0.007843,-0.007843,-1.960784,-1.960784,-1.960784,3
-2.823529,-2.823529,-100.235294,-0.007843,-0.007843,-0.007843,-1.960784,-1.960784,-1.960784,3
-2.823529,-2.823529,-100.235294,-0.007843,-0.007843,-0.007843,-1.960784,-1.960784,-1.960784,3
-2.823529,-2.823529,-100.235294,-0.007843,-0.007843,-0.007843,-1.960784,-1.960784,-1.960784,3
-2.823529,-2.823529,-100.235294,-0.007843,-0.007843,-0.007843,-1.960784,-1.960784,-1.960784,3
-2.823529,-2.823529,-100.235294,-0.007843,0.007843,-0.007843,-1.960784,-1.960784,-1.960784,3
-2.823529,-2.823529,-100.235294,-0.007843,-0.007843,-0.007843,-1.960784,-1.960784,-1.960784,3
-2.823529,-2.823529,-101.647059,-0.007843,0.007843,-0.007843,-1.960784,-1.960784,-1.960784,3
-2.823529,-2.823529,-101.647059,-0.007843,-0.007843,-0.007843,-1.960784,-1.960784,-1.960784,3
-2.823529,-2.823529,-101.647059,-0.007843,-0.007843,-0.007843,-1.960784,-1.960784,-1.960784,3
-2.823529,-2.823529,-101.647059,-0.007843,0.007843,-0.007843,-1.960784,-1.960784,-1.960784,3
-2.823529,-2.823529,-101.647059,-0.007843,-0.007843,-0.007843,-1.960784,-1.960784,-1.960784,3
