Eulerx,Eulery,Eulerz,Accx,Accy,Accz,Gyrox,Gyroy,Gyroz,Label
0,0,-2.823529,-0.007843,-0.007843,-0.007843,-1.960784,-1.960784,-1.960784,Null
-2.823529,0,-2.823529,-0.007843,-0.007843,-0.007843,-1.960784,-1.960784,-1.960784,Null
-2.823529,0,-2.823529,-0.007843,-0.007843,-0.007843,-1.960784,-1.960784,-1.960784,Null
-2.823529,0,-2.823529,-0.007843,-0.007843,-0.007843,-1.960784,-1.960784,-1.960784,Null
-2.823529,0,-2.823529,-0.007843,-0.007843,-0.007843,-1.960784,-1.960784,-1.960784,Null
-2.823529,0,-2.823529,-0.007843,-0.007843,-0.007843,-1.960784,-1.960784,-1.960784,Null
-2.823529,0,-2.823529,-0.007843,-0.007843,-0.007843,-1.960784,-1.960784,-1.960784,Null
-2.823529,0,-2.823529,-0.007843,-0.007843,-0.007843,-1.960784,-1.960784,-1.960784,Null
-2.823529,0,-2.823529,-0.007843,-0.007843,-0.007843,-1.960784,-1.960784,-1.960784,Null
-2.823529,0,-2.823529,-0.007843,-0.007843,-0.007843,-1.960784,-1.960784,-1.960784,Null
-2.823529,0,-2.823529,-0.007843,-0.007843,-0.007843,-1.960784,-1.960784,-1.960784,Null
-2.823529,0,-2.823529,-0.007843,-0.007843,-0.007843,-1.960784,-1.960784,-1.960784,Null
-2.823529,0,-2.823529,-0.007843,-0.007843,-0.007843,-1.960784,-1.960784,-1.960784,Null
-2.823529,0,-2.823529,-0.007843,-0.007843,-0.023529,-1.960784,-1.960784,-1.960784,Null
-2.823529,0,-2.823529,-0.007843,-0.023529,-0.023529,-1.960784,-1.960784,-1.960784,Null
-2.823529,0,-2.823529,-0.007843,-0.007843,-0.007843,-1.960784,-1.960784,-1.960784,Null
-2.823529,0,-2.823529,-0.007843,-0.007843,-0.007843,-1.960784,-1.960784,-1.960784,Null
-2.823529,0,-2.823529,-0.007843,-0.007843,-0.007843,-1.960784,-1.960784,-1.960784,Null
-2.823529,0,-2.823529,-0.007843,-0.007843,-0.007843,-1.960784,-1.960784,-1.960784,Null
-2.823529,0,-2.823529,-0.007843,-0.007843,-0.007843,-1.960784,-1.960784,-1.960784,Null
-2.823529,0,-2.823529,-0.007843,-0.007843,-0.007843,-1.960784,-1.960784,-1.960784,Null
-2.823529,0,-2.823529,-0.007843,-0.007843,-0.007843,-1.960784,-1.960784,-1.960784,Null
-2.823529,-2.823529,-2.823529,-0.007843,-0.007843,-0.007843,-1.960784,-1.960784,-1.960784,Null
-2.823529,-2.823529,-2.823529,-0.007843,-0.007843,-0.007843,-1.960784,-1.960784,-1.960784,Null
-2.823529,-2.823529,-2.823529,-0.007843,-0.007843,-0.007843,-1.960784,-1.960784,-1.960784,Null
-2.823529,-2.823529,-2.823529,-0.007843,-0.007843,-0.007843,-1.960784,-1.960784,-1.960784,Null
-2.823529,-2.823529,-2.823529,-0.007843,-0.007843,-0.007843,-1.960784,-1.960784,-1.960784,Null
-2.823529,-2.823529,-2.823529,-0.007843,-0.007843,-0.007843,-1.960784,-1.960784,-1.960784,Null
-2.823529,-2.823529,-2.823529,-0.007843,-0.007843,-0.007843,-1.960784,-1.960784,-1.960784,Null
-2.823529,-2.823529,-2.823529,-0.007843,-0.007843,-0.007843,-1.960784,-1.960784,-1.960784,Null
-2.823529,-2.823529,-2.823529,-0.007843,-0.007843,-0.007843,-1.960784,-1.960784,-1.960784,Null
-2.823529,-2.823529,-2.823529,-0.023529,-0.007843,-0.007843,-1.960784,-1.960784,-1.960784,Null
-2.823529,-2.823529,-2.823529,-0.007843,-0.007843,-0.007843,-1.960784,-1.960784,-1.960784,Null
-2.823529,-2.823529,-2.823529,-0.007843,-0.007843,-0.007843,-1.960784,-1.960784,-1.960784,Null
-2.823529,-2.823529,-2.823529,-0.007843,-0.007843,-0.007843,-1.960784,-1.960784,-1.960784,Null
-2.823529,-2.823529,-2.823529,-0.007843,-0.007843,-0.007843,-1.960784,-1.960784,-1.960784,Null
0,-2.823529,-2.823529,-0.007843,-0.007843,-0.007843,-1.960784,-1.960784,-1.960784,Null
0,-2.823529,-2.823529,-0.007843,-0.007843,-0.007843,-1.960784,-1.960784,-1.960784,Null
0,-2.823529,-2.823529,-0.007843,-0.007843,-0.007843,-1.960784,-1.960784,-1.960784,Null
0,-2.823529,-2.823529,-0.007843,-0.007843,-0.007843,-1.960784,-1.960784,-1.960784,Null
0,-2.823529,-2.823529,-0.007843,-0.007843,-0.007843,-1.960784,-1.960784,-1.960784,Null
0,-2.823529,-2.823529,-0.007843,-0.007843,-0.007843,-1.960784,-1.960784,-1.960784,Null
0,-2.823529,-2.823529,-0.007843,-0.007843,-0.007843,-1.960784,-1.960784,-1.960784,Null
0,0,-2.823529,-0.007843,-0.007843,-0.023529,-1.960784,-1.960784,-1.960784,Null
-2.823529,0,-2.823529,-0.007843,-0.023529,-0.007843,-1.960784,-1.960784,-1.960784,Null
0,0,-2.823529,-0.007843,-0.007843,-0.007843,-1.960784,-1.960784,-1.960784,3
0,-2.823529,-2.823529,-0.007843,-0.007843,-0.007843,-1.960784,-1.960784,-1.960784,3
0,0,-2.823529,-0.007843,-0.007843,-0.007843,-1.960784,-1.960784,-1.960784,3
0,0,-2.823529,-0.007843,-0.023529,-0.007843,-1.960784,-1.960784,-1.960784,3
0,0,-2.823529,-0.007843,-0.007843,-0.007843,-1.960784,-1.960784,-1.960784,3
0,-2.823529,-2.823529,-0.007843,-0.007843,-0.007843,-1.960784,-1.960784,-1.960784,3
0,-2.823529,-2.823529,-0.007843,-0.007843,-0.007843,-1.960784,-1.960784,-1.960784,3
0,-2.823529,-2.823529,-0.007843,-0.007843,-0.007843,-1.960784,-1.960784,-1.960784,3
0,-2.823529,-2.823529,-0.007843,-0.007843,0.007843,-1.960784,-1.960784,-1.960784,3
0,-2.823529,-2.823529,-0.007843,-0.007843,-0.007843,-1.960784,-1.960784,-1.960784,3
0,-2.823529,-2.823529,-0.007843,-0.007843,-0.007843,-1.960784,-1.960784,-1.960784,3
0,-2.823529,-2.823529,-0.007843,-0.007843,-0.007843,-1.960784,-1.960784,-1.960784,3
0,-2.823529,-2.823529,-0.007843,-0.007843,-0.007843,-1.960784,-1.960784,-1.960784,3
0,-2.823529,-2.823529,-0.007843,-0.007843,-0.007843,-1.960784,-1.960784,-1.960784,3
0,-2.823529,-2.823529,-0.007843,-0.007843,-0.007843,-1.960784,-1.960784,-1.960784,3
0,-2.823529,-2.823529,-0.007843,-0.007843,-0.007843,-1.960784,-1.960784,-1.960784,3
0,-2.823529,-2.823529,-0.007843,-0.007843,-0.007843,-1.960784,-1.960784,-1.960784,3
0,-2.823529,-2.823529,-0.007843,-0.007843,-0.007843,-1.960784,-1.960784,-1.960784,3
0,-2.823529,-2.823529,-0.007843,-0.007843,-0.007843,-1.960784,-1.960784,-1.960784,3
0,-2.823529,-2.823529,-0.007843,-0.007843,-0.007843,-1.960784,-1.960784,-1.960784,3
0,-2.823529,-2.823529,-0.007843,-0.007843,-0.007843,-1.960784,-1.960784,-1.960784,3
0,-2.823529,-2.823529,-0.007843,-0.007843,-0.007843,-1.960784,-1.960784,-1.960784,3
0,-2.823529,-2.823529,-0.007843,-0.007843,-0.007843,-1.960784,-1.960784,-1.960784,3
0,-2.823529,-2.823529,-0.007843,-0.007843,-0.007843,-1.960784,-1.960784,-1.960784,3
0,-2.823529,-2.823529,-0.007843,-0.007843,-0.007843,-1.960784,-1.960784,-1.960784,3
0,-2.823529,-2.823529,-0.007843,-0.007843,-0.007843,-1.960784,-1.960784,-1.960784,3
0,-2.823529,-2.823529,-0.007843,-0.007843,-0.007843,-1.960784,-1.960784,-1.960784,3
0,-2.823529,-2.823529,-0.007843,-0.007843,-0.007843,-1.960784,-1.960784,-1.960784,3
0,-2.823529,-2.823529,-0.007843,-0.007843,-0.007843,-1.960784,-1.960784,-1.960784,3
0,-2.823529,-2.823529,-0.007843,-0.007843,-0.007843,-1.960784,-1.960784,-1.960784,3
0,-2.823529,-2.823529,-0.007843,-0.007843,-0.007843,-1.960784,-1.960784,-1.960784,3
0,-2.823529,-2.823529,-0.007843,-0.007843,-0.007843,-1.960784,-1.960784,-1.960784,3
0,-2.823529,-2.823529,-0.007843,-0.007843,-0.007843,-1.960784,-1.960784,-1.960784,3
0,-2.823529,-2.823529,-0.007843,-0.007843,-0.007843,-1.960784,-1.960784,-1.960784,3
0,-2.823529,-2.823529,-0.007843,-0.007843,-0.007843,-1.960784,-1.960784,-1.960784,3
0,-2.823529,-2.823529,-0.007843,-0.007843,-0.007843,-1.960784,-1.960784,-1.960784,3
0,-2.823529,-2.823529,-0.007843,-0.007843,-0.007843,-1.960784,-1.960784,-1.960784,3
0,-2.823529,-2.823529,-0.007843,-0.007843,-0.007843,-1.960784,-1.960784,-1.960784,3
0,-2.823529,-2.823529,-0.007843,-0.007843,-0.007843,-1.960784,-1.960784,-1.960784,3
0,-2.823529,-2.823529,-0.007843,-0.007843,-0.007843,-1.960784,-1.960784,-1.960784,3
0,-2.823529,-2.823529,-0.007843,-0.007843,-0.007843,-1.960784,-1.960784,-1.960784,3
0,0,-2.823529,-0.007843,-0.007843,-0.007843,-1.960784,-1.960784,-1.960784,3
0,0,-2.823529,-0.007843,-0.007843,-0.007843,-1.960784,-1.960784,-1.960784,3
0,0,-2.823529,-0.007843,-0.007843,-0.007843,-1.960784,-1.960784,-1.960784,3
0,-2.823529,-2.823529,-0.007843,-0.007843,-0.007843,-1.960784,-1.960784,-1.960784,3
0,-2.823529,-2.823529,-0.007843,-0.007843,-0.007843,-1.960784,-1.960784,-1.960784,3
0,-2.823529,-2.823529,-0.007843,-0.007843,-0.007843,-1.960784,-1.960784,-1.960784,3
0,-2.823529,-2.823529,-0.007843,-0.007843,-0.007843,-1.960784,-1.960784,-1.960784,3
0,-2.823529,-2.823529,-0.007843,-0.007843,-0.007843,-1.960784,-1.960784,-1.960784,3
0,-2.823529,-2.823529,-0.007843,-0.007843,-0.007843,-1.960784,-1.960784,-1.960784,3
0,-2.823529,-2.823529,-0.007843,-0.007843,-0.007843,-1.960784,-1.960784,-1.960784,3
0,-2.823529,-2.823529,-0.007843,-0.007843,-0.007843,-1.960784,-1.960784,-1.960784,3
0,-2.823529,-2.823529,-0.007843,-0.007843,-0.007843,-1.960784,-1.960784,-1.960784,3
0,-2.823529,-2.823529,-0.007843,-0.007843,-0.007843,-1.960784,-1.960784,-1.960784,3
0,-2.823529,-2.823529,-0.007843,-0.007843,-0.007843,-1.960784,-1.960784,-1.960784,3
0,-2.823529,-2.823529,-0.007843,-0.007843,-0.007843,-1.960784,-1.960784,-1.960784,3
0,-2.823529,-2.823529,-0.007843,-0.007843,-0.007843,-1.960784,-1.960784,-1.960784,3
0,-2.823529,-2.823529,-0.007843,-0.007843,0.007843,-1.960784,-1.960784,-1.960784,3
0,-2.823529,-2.823529,-0.007843,-0.007843,-0.007843,-1.960784,-1.960784,-1.960784,3
0,-2.823529,-2.823529,-0.007843,-0.007843,-0.007843,-1.960784,-1.960784,-1.960784,3
0,-2.823529,-2.823529,-0.007843,0.007843,-0.007843,-1.960784,-1.960784,-1.960784,3
0,-2.823529,-2.823529,-0.007843,-0.007843,-0.007843,-1.960784,-1.960784,-1.960784,3
0,0,-2.823529,-0.007843,-0.007843,-0.007843,-1.960784,-1.960784,-1.960784,3
0,0,-2.823529,-0.007843,-0.007843,-0.007843,-1.960784,-1.960784,-1.960784,3
0,-2.823529,-2.823529,-0.007843,-0.007843,-0.007843,-1.960784,-1.960784,-1.960784,3
0,0,-2.823529,-0.007843,-0.007843,-0.007843,-1.960784,-1.960784,-1.960784,3
0,-2.823529,-2.823529,-0.007843,-0.007843,-0.007843,-1.960784,-1.960784,-1.960784,3
0,-2.823529,-2.823529,-0.007843,-0.007843,-0.007843,-1.960784,-1.960784,-1.960784,3
0,-2.823529,-2.823529,-0.007843,-0.007843,-0.007843,-1.960784,-1.960784,-1.960784,3
0,-2.823529,-2.823529,-0.007843,-0.007843,-0.007843,-1.960784,-1.960784,-1.960784,3
0,-2.823529,-2.823529,-0.007843,-0.007843,-0.007843,-1.960784,-1.960784,-1.960784,3
0,-2.823529,-2.823529,-0.007843,-0.007843,-0.007843,-1.960784,-1.960784,-1.960784,3
0,-2.823529,-2.823529,-0.007843,-0.007843,-0.007843,-1.960784,-1.960784,-1.960784,3
0,-2.823529,-2.823529,-0.007843,-0.007843,-0.007843,-1.960784,-1.960784,-1.960784,3
0,-2.823529,-2.823529,-0.007843,-0.007843,-0.007843,-1.960784,-1.960784,-1.960784,3
0,-2.823529,-2.823529,-0.007843,-0.007843,-0.007843,-1.960784,-1.960784,-1.960784,3
0,0,-2.823529,-0.007843,-0.007843,-0.007843,-1.960784,-1.960784,-1.960784,3
0,0,-2.823529,-0.007843,-0.007843,-0.007843,-1.960784,-1.960784,-1.960784,3
0,0,-2.823529,-0.007843,-0.007843,-0.007843,-1.960784,-1.960784,-1.960784,3
0,0,-2.823529,-0.007843,-0.007843,-0.007843,-1.960784,-1.960784,-1.960784,3
0,-2.823529,-2.823529,-0.007843,-0.023529,0.023529,-1.960784,-1.960784,-1.960784,3
0,-2.823529,-2.823529,0.007843,0.007843,-0.007843,-1.960784,-1.960784,-1.960784,3
0,-2.823529,-2.823529,-0.007843,-0.007843,-0.007843,-1.960784,-1.960784,-1.960784,3
0,-2.823529,-2.823529,-0.007843,-0.007843,-0.007843,-1.960784,-1.960784,-1.960784,3
0,-2.823529,-2.823529,-0.007843,-0.007843,-0.007843,-1.960784,-1.960784,-1.960784,3
0,-2.823529,-2.823529,-0.007843,-0.007843,-0.007843,-1.960784,-1.960784,-1.960784,3
0,-2.823529,-2.823529,-0.007843,-0.007843,-0.007843,-1.960784,-1.960784,-1.960784,3
0,-2.823529,-2.823529,-0.007843,-0.007843,-0.007843,-1.960784,-1.960784,-1.960784,3
0,-2.823529,-2.823529,-0.007843,-0.007843,-0.007843,-1.960784,-1.960784,-1.960784,3
0,0,-2.823529,-0.007843,-0.007843,-0.007843,-1.960784,-1.960784,-1.960784,3
0,0,-2.823529,-0.007843,-0.007843,-0.007843,-1.960784,-1.960784,-1.960784,3
0,0,-2.823529,-0.007843,-0.007843,-0.007843,-1.960784,-1.960784,-1.960784,3
0,0,-2.823529,-0.007843,-0.007843,-0.007843,-1.960784,-1.960784,-1.960784,3
0,0,-2.823529,-0.007843,-0.007843,-0.023529,-1.960784,-1.960784,-1.960784,3
0,0,-2.823529,-0.007843,-0.007843,-0.007843,-1.960784,-1.960784,-1.960784,3
0,0,-2.823529,-0.007843,-0.007843,-0.007843,-1.960784,-1.960784,-1.960784,3
0,0,-2.823529,-0.007843,-0.007843,-0.007843,-1.960784,-1.960784,-1.960784,3
0,0,-2.823529,-0.007843,-0.007843,-0.007843,-1.960784,-1.960784,-1.960784,3
0,0,-2.823529,-0.007843,-0.007843,-0.007843,-1.960784,-1.960784,-1.960784,3
0,0,-2.823529,-0.007843,-0.007843,-0.007843,-1.960784,-1.960784,-1.960784,3
0,0,-2.823529,-0.007843,-0.007843,-0.007843,-1.960784,-1.960784,-1.960784,3
0,0,-2.823529,-0.007843,-0.007843,-0.007843,-1.960784,-1.960784,-1.960784,3
0,0,-2.823529,-0.007843,-0.007843,-0.007843,-1.960784,-1.960784,-1.960784,3
0,0,-2.823529,-0.007843,-0.007843,-0.007843,-1.960784,-1.960784,-1.960784,3
0,0,-2.823529,-0.007843,-0.007843,-0.007843,-1.960784,-1.960784,-1.960784,3
0,0,-2.823529,-0.007843,-0.007843,-0.007843,-1.960784,-1.960784,-1.960784,3
0,0,-2.823529,-0.007843,-0.007843,-0.007843,-1.960784,-1.960784,-1.960784,3
0,0,-2.823529,-0.007843,-0.007843,-0.007843,-1.960784,-1.960784,-1.960784,3
0,0,-2.823529,-0.007843,-0.007843,-0.007843,-1.960784,-1.960784,-1.960784,3
0,0,-2.823529,-0.007843,-0.007843,-0.007843,-1.960784,-1.960784,-1.960784,3
0,0,-2.823529,-0.007843,-0.007843,-0.007843,-1.960784,-1.960784,-1.960784,3
0,0,-2.823529,-0.007843,-0.007843,-0.007843,-1.960784,-1.960784,-1.960784,3
0,0,-2.823529,-0.007843,-0.007843,-0.007843,-1.960784,-1.960784,-1.960784,3
0,0,-2.823529,-0.007843,-0.007843,-0.007843,-1.960784,-1.960784,-1.960784,3
0,0,-2.823529,-0.007843,-0.007843,-0.007843,-1.960784,-1.960784,-1.960784,3
0,0,-2.823529,-0.007843,-0.007843,-0.007843,-1.960784,-1.960784,-1.960784,3
0,0,-2.823529,-0.007843,-0.007843,-0.007843,-1.960784,-1.960784,-1.960784,3
0,-2.823529,-2.823529,-0.007843,-0.007843,-0.007843,-1.960784,-1.960784,-1.960784,3
0,-2.823529,-2.823529,-0.007843,-0.007843,-0.007843,-1.960784,-1.960784,-1.960784,3
0,-2.823529,-2.823529,-0.007843,-0.007843,-0.007843,-1.960784,-1.960784,-1.960784,3
0,-2.823529,-2.823529,-0.007843,-0.007843,-0.007843,-1.960784,-1.960784,-1.960784,3
0,-2.823529,-2.823529,-0.007843,-0.007843,-0.007843,-1.960784,-1.960784,-1.960784,3
0,0,-2.823529,-0.007843,-0.007843,-0.007843,-1.960784,-1.960784,-1.960784,3
0,-2.823529,-2.823529,-0.007843,-0.007843,-0.007843,-1.960784,-1.960784,-1.960784,3
0,-2.823529,-2.823529,-0.007843,-0.007843,-0.007843,-1.960784,-1.960784,-1.960784,3
0,-2.823529,-2.823529,-0.007843,-0.007843,-0.007843,-1.960784,-1.960784,-1.960784,3
0,0,-2.823529,-0.007843,-0.007843,-0.007843,-1.960784,-1.960784,-1.960784,3
0,0,-2.823529,-0.007843,-0.007843,-0.007843,-1.960784,-1.960784,-1.960784,3
0,-2.823529,-2.823529,-0.007843,-0.007843,-0.007843,-1.960784,-1.960784,-1.960784,3
0,-2.823529,-2.823529,-0.007843,-0.007843,-0.007843,-1.960784,-1.960784,-1.960784,3
0,-2.823529,-2.823529,-0.007843,-0.007843,-0.007843,-1.960784,-1.960784,-1.960784,3
0,-2.823529,-2.823529,-0.007843,-0.007843,-0.007843,-1.960784,-1.960784,-1.960784,3
0,-2.823529,-2.823529,-0.007843,-0.007843,-0.007843,-1.960784,-1.960784,-1.960784,3
0,-2.823529,-2.823529,-0.007843,-0.007843,-0.007843,-1.960784,-1.960784,-1.960784,3
0,-2.823529,-2.823529,-0.007843,-0.007843,-0.007843,-1.960784,-1.960784,-1.960784,3
0,-2.823529,-2.823529,-0.007843,-0.007843,-0.007843,-1.960784,-1.960784,-1.960784,3
0,-2.823529,-2.823529,-0.007843,-0.007843,-0.007843,-1.960784,-1.960784,-1.960784,3
0,-2.823529,-2.823529,-0.007843,-0.007843,-0.007843,-1.960784,-1.960784,-1.960784,3
0,-2.823529,-2.823529,-0.007843,-0.007843,-0.007843,-1.960784,-1.960784,-1.960784,3
0,-2.823529,-2.823529,-0.007843,-0.007843,-0.007843,-1.960784,-1.960784,-1.960784,3
0,-2.823529,-2.823529,-0.007843,-0.007843,-0.007843,-1.960784,-1.960784,-1.960784,3
0,-2.823529,-2.823529,-0.007843,-0.007843,-0.007843,-1.960784,-1.960784,-1.960784,3
0,-2.823529,-2.823529,-0.007843,-0.007843,-0.007843,-1.960784,-1.960784,-1.960784,3
0,-2.823529,-2.823529,-0.007843,-0.007843,-0.007843,-1.960784,-1.960784,-1.960784,3
0,-2.823529,-2.823529,-0.007843,-0.007843,-0.007843,-1.960784,-1.960784,-1.960784,3
0,-2.823529,-2.823529,-0.007843,-0.007843,-0.007843,-1.960784,-1.960784,-1.960784,3
0,-2.823529,-2.823529,-0.007843,-0.007843,-0.007843,-1.960784,-1.960784,-1.960784,3
0,-2.823529,-2.823529,-0.007843,-0.007843,-0.007843,-1.960784,-1.960784,-1.960784,3
0,-2.823529,-2.823529,-0.007843,-0.007843,-0.007843,-1.960784,-1.960784,-1.960784,3
0,-2.823529,-2.823529,-0.007843,-0.007843,-0.007843,-1.960784,-1.960784,-1.960784,3
0,-2.823529,-2.823529,-0.007843,-0.007843,-0.007843,-1.960784,-1.960784,-1.960784,3
0,-2.823529,-2.823529,-0.007843,-0.007843,-0.007843,-1.960784,-1.960784,-1.960784,3
0,-2.823529,-2.823529,-0.007843,-0.007843,-0.007843,-1.960784,-1.960784,-1.960784,3
0,-2.823529,-2.823529,-0.007843,-0.007843,-0.007843,-1.960784,-1.960784,-1.960784,3
0,-2.823529,-2.823529,-0.007843,-0.007843,-0.007843,-1.960784,-1.960784,-1.960784,3
0,-2.823529,-2.823529,-0.007843,-0.007843,-0.007843,-1.960784,-1.960784,-1.960784,3
0,-2.823529,-2.823529,-0.007843,-0.007843,-0.007843,-1.960784,-1.960784,-1.960784,3
0,-2.823529,-2.823529,-0.007843,-0.007843,-0.007843,-1.960784,-1.960784,-1.960784,3
0,-2.823529,-2.823529,-0.007843,-0.007843,-0.007843,-1.960784,-1.960784,-1.960784,3
0,-2.823529,-2.823529,-0.007843,-0.007843,-0.007843,-1.960784,-1.960784,-1.960784,3
0,-2.823529,-2.823529,-0.007843,-0.007843,-0.007843,-1.960784,-1.960784,-1.960784,3
0,-2.823529,-2.823529,-0.007843,-0.007843,-0.007843,-1.960784,-1.960784,-1.960784,3
0,-2.823529,-2.823529,-0.007843,-0.007843,-0.007843,-1.960784,-1.960784,-1.960784,3
0,-2.823529,-2.823529,-0.007843,-0.007843,-0.007843,-1.960784,-1.960784,-1.960784,3
0,-2.823529,-2.823529,-0.007843,-0.007843,-0.007843,-1.960784,-1.960784,-1.960784,3
0,-2.823529,-2.823529,-0.007843,-0.007843,-0.007843,-1.960784,-1.960784,-1.960784,3
0,-2.823529,-2.823529,-0.007843,-0.007843,-0.007843,-1.960784,-1.960784,-1.960784,3
0,-2.823529,-2.823529,-0.007843,-0.007843,-0.007843,-1.960784,-1.960784,-1.960784,3
0,-2.823529,-2.823529,-0.007843,-0.007843,-0.007843,-1.960784,-1.960784,-1.960784,3
0,-2.823529,-2.823529,-0.007843,-0.007843,-0.007843,-1.960784,-1.960784,-1.960784,3
0,-2.823529,-2.823529,-0.007843,-0.007843,-0.007843,-1.960784,-1.960784,-1.960784,3
-2.823529,-2.823529,-2.823529,-0.007843,-0.007843,-0.007843,-1.960784,-1.960784,-1.960784,3
-2.823529,-2.823529,-2.823529,-0.007843,-0.007843,-0.007843,-1.960784,-1.960784,-1.960784,3
0,-2.823529,-2.823529,-0.007843,-0.007843,-0.007843,-1.960784,-1.960784,-1.960784,3
0,-2.823529,-2.823529,-0.007843,-0.007843,-0.007843,-1.960784,-1.960784,-1.960784,3
0,-2.823529,-2.823529,-0.007843,-0.007843,-0.007843,-1.960784,-1.960784,-1.960784,3
0,-2.823529,-2.823529,-0.007843,-0.007843,-0.007843,-1.960784,-1.960784,-1.960784,3
0,-2.823529,-2.823529,-0.007843,-0.007843,-0.007843,-1.960784,-1.960784,-1.960784,3
0,-2.823529,-2.823529,-0.007843,-0.007843,-0.007843,-1.960784,-1.960784,-1.960784,3
0,-2.823529,-2.823529,-0.007843,-0.007843,-0.007843,-1.960784,-1.960784,-1.960784,3
0,-2.823529,-2.823529,-0.007843,-0.007843,-0.007843,-1.960784,-1.960784,-1.960784,3
0,-2.823529,-2.823529,-0.007843,-0.007843,-0.023529,-1.960784,-1.960784,-1.960784,3
0,-2.823529,-2.823529,-0.007843,-0.007843,-0.007843,-1.960784,-1.960784,-1.960784,3
0,-2.823529,-2.823529,-0.007843,-0.007843,-0.007843,-1.960784,-1.960784,-1.960784,3
0,-2.823529,-2.823529,-0.007843,-0.007843,-0.007843,-1.960784,-1.960784,-1.960784,3
0,-2.823529,-2.823529,-0.007843,-0.007843,-0.007843,-1.960784,-1.960784,-1.960784,3
0,-2.823529,-2.823529,-0.007843,-0.007843,-0.007843,-1.960784,-1.960784,-1.960784,3
0,-2.823529,-2.823529,-0.007843,-0.007843,-0.007843,-1.960784,-1.960784,-1.960784,3
0,-2.823529,-2.823529,-0.007843,-0.007843,-0.007843,-1.960784,-1.960784,-1.960784,3
0,-2.823529,-2.823529,-0.007843,-0.007843,0.007843,-1.960784,-1.960784,-1.960784,3
0,-2.823529,-2.823529,-0.007843,-0.007843,-0.007843,-1.960784,-1.960784,-1.960784,3
0,-2.823529,-2.823529,-0.007843,-0.007843,-0.007843,-1.960784,-1.960784,-1.960784,3
0,-2.823529,-2.823529,-0.007843,-0.007843,-0.007843,-1.960784,-1.960784,-1.960784,3
0,-2.823529,-2.823529,-0.007843,-0.007843,0.007843,-1.960784,-1.960784,-1.960784,3
0,-2.823529,-2.823529,-0.007843,-0.007843,-0.007843,-1.960784,-1.960784,-1.960784,3
0,0,-2.823529,-0.007843,-0.007843,-0.007843,-1.960784,-1.960784,-1.960784,3
-2.823529,0,-2.823529,-0.007843,-0.007843,-0.007843,-1.960784,-1.960784,-1.960784,3
-2.823529,0,-2.823529,-0.007843,-0.007843,-0.007843,-1.960784,-1.960784,-1.960784,3
0,0,-2.823529,-0.007843,-0.007843,-0.007843,-1.960784,-1.960784,-1.960784,3
0,0,-2.823529,-0.007843,-0.007843,-0.007843,-1.960784,-1.960784,-1.960784,3
-2.823529,0,-2.823529,-0.007843,-0.007843,-0.007843,-1.960784,-1.960784,-1.960784,3
-2.823529,0,-2.823529,-0.007843,-0.007843,-0.007843,-1.960784,-1.960784,-1.960784,3
0,0,-2.823529,-0.007843,-0.007843,-0.007843,-1.960784,-1.960784,-1.960784,3
0,0,-2.823529,-0.007843,-0.007843,-0.007843,-1.960784,-1.960784,-1.960784,3
0,0,-2.823529,-0.007843,-0.007843,-0.007843,-1.960784,-1.960784,-1.960784,3
0,0,-2.823529,-0.007843,-0.007843,-0.007843,-1.960784,-1.960784,-1.960784,3
0,0,-2.823529,-0.007843,-0.007843,-0.007843,-1.960784,-1.960784,-1.960784,3
0,0,-2.823529,-0.007843,-0.007843,-0.007843,-1.960784,-1.960784,-1.960784,3
0,0,-2.823529,-0.007843,-0.007843,-0.007843,-1.960784,-1.960784,-1.960784,3
0,0,-2.823529,-0.007843,-0.007843,-0.007843,-1.960784,-1.960784,-1.960784,3
0,0,-2.823529,-0.007843,-0.007843,-0.007843,-1.960784,-1.960784,-1.960784,3
0,0,-2.823529,-0.007843,-0.007843,-0.007843,-1.960784,-1.960784,-1.960784,3
0,0,-2.823529,-0.007843,-0.007843,-0.007843,-1.960784,-1.960784,-1.960784,3
0,0,-2.823529,-0.007843,-0.007843,-0.007843,-1.960784,-1.960784,-1.960784,3
0,0,-2.823529,-0.007843,-0.007843,-0.007843,-1.960784,-1.960784,-1.960784,3
0,0,-2.823529,-0.007843,-0.007843,-0.007843,-1.960784,-1.960784,-1.960784,3
0,0,-2.823529,-0.007843,-0.007843,-0.007843,-1.960784,-1.960784,-1.960784,3
0,0,-2.823529,-0.007843,-0.007843,-0.007843,-1.960784,-1.960784,-1.960784,3
0,0,-2.823529,-0.007843,-0.007843,-0.007843,-1.960784,-1.960784,-1.960784,3
0,0,-2.823529,-0.007843,-0.007843,-0.007843,-1.960784,-1.960784,-1.960784,3
0,0,-2.823529,-0.007843,-0.007843,-0.007843,-1.960784,-1.960784,-1.960784,3
-2.823529,0,-2.823529,-0.007843,-0.007843,-0.007843,-1.960784,-1.960784,-1.960784,3
0,0,-2.823529,-0.007843,0.007843,-0.007843,-1.960784,-1.960784,-1.960784,3
0,0,-2.823529,-0.007843,-0.007843,-0.007843,-1.960784,-1.960784,-1.960784,3
-2.823529,0,-2.823529,-0.007843,-0.007843,-0.007843,-1.960784,-1.960784,-1.960784,3
0,0,-2.823529,-0.007843,-0.007843,-0.007843,-1.960784,-1.960784,-1.960784,3
0,0,-2.823529,-0.007843,-0.007843,-0.007843,-1.960784,-1.960784,-1.960784,3
0,0,-2.823529,-0.007843,-0.007843,-0.007843,-1.960784,-1.960784,-1.960784,3
-2.823529,0,-2.823529,-0.007843,-0.007843,-0.007843,-1.960784,-1.960784,-1.960784,3
0,0,-2.823529,-0.007843,-0.007843,-0.007843,-1.960784,-1.960784,-1.960784,3
0,0,-2.823529,-0.007843,-0.007843,-0.007843,-1.960784,-1.960784,-1.960784,3
0,0,-2.823529,-0.007843,-0.007843,-0.007843,-1.960784,-1.960784,-1.960784,3
0,0,-2.823529,-0.007843,-0.007843,-0.007843,-1.960784,-1.960784,-1.960784,3
0,0,-2.823529,-0.007843,-0.007843,-0.007843,-1.960784,-1.960784,-1.960784,3
0,0,-2.823529,-0.007843,-0.007843,-0.007843,-1.960784,-1.960784,-1.960784,3
0,-2.823529,-2.823529,-0.007843,0.007843,-0.007843,-1.960784,-1.960784,-1.960784,3
0,-2.823529,-2.823529,-0.007843,-0.007843,-0.007843,-1.960784,-1.960784,-1.960784,3
0,-2.823529,-2.823529,-0.007843,-0.007843,-0.007843,-1.960784,-1.960784,-1.960784,3
0,-2.823529,-2.823529,-0.007843,-0.007843,-0.007843,-1.960784,-1.960784,-1.960784,3
0,-2.823529,-2.823529,-0.007843,-0.007843,-0.007843,-1.960784,-1.960784,-1.960784,3
0,-2.823529,-2.823529,-0.007843,-0.007843,-0.007843,-1.960784,-1.960784,-1.960784,3
0,-2.823529,-2.823529,-0.007843,-0.007843,-0.007843,-1.960784,-1.960784,-1.960784,3
0,-2.823529,-2.823529,-0.007843,-0.007843,-0.007843,-1.960784,-1.960784,-1.960784,3
0,-2.823529,-2.823529,-0.007843,-0.007843,-0.007843,-1.960784,-1.960784,-1.960784,3
0,-2.823529,-2.823529,-0.007843,-0.007843,-0.007843,-1.960784,-1.960784,-1.960784,3
0,-2.823529,-2.823529,-0.007843,-0.007843,-0.007843,-1.960784,-1.960784,-1.960784,3
0,-2.823529,-2.823529,-0.007843,-0.007843,-0.007843,-1.960784,-1.960784,-1.960784,3
0,-2.823529,-2.823529,-0.007843,-0.007843,-0.007843,-1.960784,-1.960784,-1.960784,3
0,-2.823529,-2.823529,-0.007843,-0.007843,-0.007843,-1.960784,-1.960784,-1.960784,3
0,-2.823529,-2.823529,-0.007843,-0.007843,-0.007843,-1.960784,-1.960784,-1.960784,3
0,-2.823529,-2.823529,-0.007843,-0.007843,-0.007843,-1.960784,-1.960784,-1.960784,3
0,-2.823529,-2.823529,-0.007843,-0.007843,-0.007843,-1.960784,-1.960784,-1.960784,3
0,-2.823529,-2.823529,-0.007843,-0.007843,-0.007843,-1.960784,-1.960784,-1.960784,3
0,-2.823529,-2.823529,-0.007843,-0.007843,-0.023529,-1.960784,-1.960784,-1.960784,3
0,0,-2.823529,-0.007843,-0.007843,-0.007843,-1.960784,-1.960784,-1.960784,3
0,-2.823529,-2.823529,-0.007843,-0.007843,-0.007843,-1.960784,-1.960784,-1.960784,3
0,0,-2.823529,-0.007843,-0.007843,-0.007843,-1.960784,-1.960784,-1.960784,3
0,0,-2.823529,-0.007843,-0.007843,-0.007843,-1.960784,-1.960784,-1.960784,3
0,-2.823529,-2.823529,-0.007843,-0.007843,-0.007843,-1.960784,-1.960784,-1.960784,3
0,-2.823529,-2.823529,-0.007843,-0.007843,-0.007843,-1.960784,-1.960784,-1.960784,3
0,-2.823529,-2.823529,-0.007843,-0.007843,-0.007843,-1.960784,-1.960784,-1.960784,3
0,-2.823529,-2.823529,-0.007843,-0.007843,-0.007843,-1.960784,-1.960784,-1.960784,3
0,-2.823529,-2.823529,-0.007843,-0.007843,-0.007843,-1.960784,-1.960784,-1.960784,3
0,-2.823529,-2.823529,-0.007843,-0.007843,-0.007843,-1.960784,-1.960784,-1.960784,3
0,-2.823529,-2.823529,-0.007843,-0.007843,-0.007843,-1.960784,-1.960784,-1.960784,3
0,-2.823529,-2.823529,-0.007843,-0.007843,-0.007843,-1.960784,-1.960784,-1.960784,3
0,-2.823529,-2.823529,-0.007843,-0.007843,-0.007843,-1.960784,-1.960784,-1.960784,3
0,-2.823529,-2.823529,-0.007843,-0.007843,-0.007843,-1.960784,-1.960784,-1.960784,3
0,-2.823529,-2.823529,-0.007843,-0.007843,-0.007843,-1.960784,-1.960784,-1.960784,3
0,-2.823529,-2.823529,-0.007843,-0.007843,-0.007843,-1.960784,-1.960784,-1.960784,3
0,-2.823529,-2.823529,-0.007843,-0.007843,-0.007843,-1.960784,-1.960784,-1.960784,3
0,-2.823529,-2.823529,-0.007843,-0.007843,-0.007843,-1.960784,-1.960784,-1.960784,3
0,-2.823529,-2.823529,-0.007843,-0.007843,-0.007843,-1.960784,-1.960784,-1.960784,3
0,-2.823529,-2.823529,-0.007843,-0.007843,-0.007843,-1.960784,-1.960784,-1.960784,3
0,-2.823529,-2.823529,-0.007843,-0.007843,-0.007843,-1.960784,-1.960784,-1.960784,3
0,-2.823529,-2.823529,-0.007843,-0.007843,-0.007843,-1.960784,-1.960784,-1.960784,3
0,-2.823529,-2.823529,-0.007843,-0.007843,-0.007843,-1.960784,-1.960784,-1.960784,3
0,-2.823529,-2.823529,-0.007843,-0.007843,-0.023529,-1.960784,-1.960784,-1.960784,3
0,-2.823529,-2.823529,-0.007843,-0.007843,-0.007843,-1.960784,-1.960784,-1.960784,3
0,-2.823529,-2.823529,-0.007843,-0.007843,-0.007843,-1.960784,-1.960784,-1.960784,3
0,-2.823529,-2.823529,-0.007843,-0.007843,-0.007843,-1.960784,-1.960784,-1.960784,3
0,-2.823529,-2.823529,-0.007843,-0.007843,-0.007843,-1.960784,-1.960784,-1.960784,3
0,-2.823529,-2.823529,-0.007843,-0.007843,-0.007843,-1.960784,-1.960784,-1.960784,3
0,-2.823529,-2.823529,-0.007843,-0.007843,-0.007843,-1.960784,-1.960784,-1.960784,3
0,-2.823529,-2.823529,-0.007843,-0.007843,-0.007843,-1.960784,-1.960784,-1.960784,3
0,-2.823529,-2.823529,-0.007843,-0.007843,-0.007843,-1.960784,-1.960784,-1.960784,3
0,-2.823529,-2.823529,-0.007843,-0.007843,-0.007843,-1.960784,-1.960784,-1.960784,3
0,-2.823529,-2.823529,-0.007843,-0.007843,-0.007843,-1.960784,-1.960784,-1.960784,3
0,-2.823529,-2.823529,-0.007843,-0.007843,-0.007843,-1.960784,-1.960784,-1.960784,3
0,-2.823529,-2.823529,-0.007843,-0.007843,-0.007843,-1.960784,-1.960784,-1.960784,3
0,-2.823529,-2.823529,-0.007843,-0.007843,-0.007843,-1.960784,-1.960784,-1.960784,3
0,-2.823529,-2.823529,-0.007843,-0.007843,-0.007843,-1.960784,-1.960784,-1.960784,3
0,-2.823529,-2.823529,-0.007843,-0.007843,-0.007843,-1.960784,-1.960784,-1.960784,3
0,-2.823529,-2.823529,-0.007843,-0.007843,-0.007843,-1.960784,-1.960784,-1.960784,3
0,-2.823529,-2.823529,-0.007843,-0.007843,-0.007843,-1.960784,-1.960784,-1.960784,3
0,-2.823529,-2.823529,-0.007843,-0.007843,-0.007843,-1.960784,-1.960784,-1.960784,3
0,-2.823529,-2.823529,-0.007843,-0.007843,-0.007843,-1.960784,-1.960784,-1.960784,3
0,-2.823529,-2.823529,-0.007843,-0.007843,-0.007843,-1.960784,-1.960784,-1.960784,3
0,-2.823529,-2.823529,-0.007843,-0.007843,-0.007843,-1.960784,-1.960784,-1.960784,3
0,-2.823529,-2.823529,-0.007843,-0.007843,-0.007843,-1.960784,-1.960784,-1.960784,3
0,-2.823529,-2.823529,-0.007843,-0.007843,-0.007843,-1.960784,-1.960784,-1.960784,3
0,-2.823529,-2.823529,-0.007843,-0.007843,-0.007843,-1.960784,-1.960784,-1.960784,3
0,0,-2.823529,-0.007843,-0.007843,-0.007843,-1.960784,-1.960784,-1.960784,3
0,0,-2.823529,-0.007843,-0.007843,-0.007843,-1.960784,-1.960784,-1.960784,3
0,0,-2.823529,-0.007843,-0.007843,-0.007843,-1.960784,-1.960784,-1.960784,3
0,0,-2.823529,-0.007843,-0.007843,-0.007843,-1.960784,-1.960784,-1.960784,3
0,0,-2.823529,-0.007843,-0.007843,-0.007843,-1.960784,-1.960784,-1.960784,3
0,0,-2.823529,-0.007843,-0.007843,-0.007843,-1.960784,-1.960784,-1.960784,3
0,0,-2.823529,-0.007843,-0.007843,-0.007843,-1.960784,-1.960784,-1.960784,3
0,0,-2.823529,-0.007843,-0.007843,-0.007843,-1.960784,-1.960784,-1.960784,3
0,0,-2.823529,-0.007843,-0.007843,-0.007843,-1.960784,-1.960784,-1.960784,3
0,0,-2.823529,-0.007843,-0.007843,-0.007843,-1.960784,-1.960784,-1.960784,3
0,0,-2.823529,-0.007843,-0.007843,-0.007843,-1.960784,-1.960784,-1.960784,3
0,0,-2.823529,-0.007843,-0.007843,-0.007843,-1.960784,-1.960784,-1.960784,3
0,0,-2.823529,-0.007843,-0.007843,-0.007843,-1.960784,-1.960784,-1.960784,3
0,0,-2.823529,-0.007843,-0.007843,-0.007843,-1.960784,-1.960784,-1.960784,3
0,0,-2.823529,-0.007843,-0.007843,-0.007843,-1.960784,-1.960784,-1.960784,3
0,0,-2.823529,-0.007843,-0.007843,-0.007843,-1.960784,-1.960784,-1.960784,3
0,0,-2.823529,-0.007843,-0.007843,-0.007843,-1.960784,-1.960784,-1.960784,3
0,0,-2.823529,-0.007843,-0.007843,-0.007843,-1.960784,-1.960784,-1.960784,3
0,0,-2.823529,-0.007843,-0.007843,-0.007843,-1.960784,-1.960784,-1.960784,3
0,0,-2.823529,-0.007843,-0.007843,-0.007843,-1.960784,-1.960784,-1.960784,3
0,0,-2.823529,-0.007843,-0.007843,-0.007843,-1.960784,-1.960784,-1.960784,3
0,0,-2.823529,-0.007843,-0.007843,-0.007843,-1.960784,-1.960784,-1.960784,3
0,0,-2.823529,-0.007843,-0.007843,-0.007843,-1.960784,-1.960784,-1.960784,3
0,0,-2.823529,-0.007843,-0.007843,-0.007843,-1.960784,-1.960784,-1.960784,3
0,0,-2.823529,-0.007843,-0.007843,-0.023529,-1.960784,-1.960784,-1.960784,3
0,-2.823529,-2.823529,-0.007843,-0.007843,-0.007843,-1.960784,-1.960784,-1.960784,3
0,-2.823529,-2.823529,-0.007843,-0.007843,-0.007843,-1.960784,-1.960784,-1.960784,3
0,-2.823529,-2.823529,-0.007843,-0.007843,-0.007843,-1.960784,-1.960784,-1.960784,3
0,0,-2.823529,-0.007843,-0.007843,-0.007843,-1.960784,-1.960784,-1.960784,3
0,0,-2.823529,-0.007843,-0.007843,-0.007843,-1.960784,-1.960784,-1.960784,3
0,-2.823529,-2.823529,-0.007843,-0.007843,-0.007843,-1.960784,-1.960784,-1.960784,3
0,-2.823529,-2.823529,-0.007843,-0.007843,-0.007843,-1.960784,-1.960784,-1.960784,3
0,-2.823529,-2.823529,-0.007843,-0.007843,-0.007843,-1.960784,-1.960784,-1.960784,3
0,-2.823529,-2.823529,-0.007843,-0.007843,-0.007843,-1.960784,-1.960784,-1.960784,3
0,-2.823529,-2.823529,-0.007843,-0.007843,-0.007843,-1.960784,-1.960784,-1.960784,3
0,0,-2.823529,-0.007843,-0.007843,-0.007843,-1.960784,-1.960784,-1.960784,3
0,0,-2.823529,-0.007843,-0.007843,-0.007843,-1.960784,-1.960784,-1.960784,3
0,-2.823529,-2.823529,-0.007843,-0.007843,-0.007843,-1.960784,-1.960784,-1.960784,3
0,0,-2.823529,-0.007843,-0.007843,-0.007843,-1.960784,-1.960784,-1.960784,3
0,0,-2.823529,-0.007843,-0.007843,-0.007843,-1.960784,-1.960784,-1.960784,3
0,0,-2.823529,-0.007843,-0.007843,-0.007843,-1.960784,-1.960784,-1.960784,3
0,0,-2.823529,-0.007843,-0.007843,-0.007843,-1.960784,-1.960784,-1.960784,3
0,0,-2.823529,-0.007843,-0.007843,-0.007843,-1.960784,-1.960784,-1.960784,3
0,0,-2.823529,-0.007843,-0.007843,-0.007843,-1.960784,-1.960784,-1.960784,3
0,-2.823529,-2.823529,-0.007843,-0.007843,-0.007843,-1.960784,-1.960784,-1.960784,3
0,-2.823529,-2.823529,-0.007843,-0.007843,-0.007843,-1.960784,-1.960784,-1.960784,3
0,-2.823529,-2.823529,-0.007843,-0.007843,-0.007843,-1.960784,-1.960784,-1.960784,3
0,-2.823529,-2.823529,-0.007843,-0.007843,-0.007843,-1.960784,-1.960784,-1.960784,3
0,-2.823529,-2.823529,-0.007843,-0.007843,-0.007843,-1.960784,-1.960784,-1.960784,3
0,-2.823529,-2.823529,-0.007843,-0.007843,-0.007843,-1.960784,-1.960784,-1.960784,3
0,-2.823529,-2.823529,-0.007843,-0.007843,-0.007843,-1.960784,-1.960784,-1.960784,3
0,-2.823529,-2.823529,-0.007843,-0.007843,-0.007843,-1.960784,-1.960784,-1.960784,3
0,-2.823529,-2.823529,-0.007843,-0.007843,-0.007843,-1.960784,-1.960784,-1.960784,3
0,-2.823529,-2.823529,-0.007843,-0.007843,-0.007843,-1.960784,-1.960784,-1.960784,3
0,-2.823529,-2.823529,-0.007843,-0.007843,-0.007843,-1.960784,-1.960784,-1.960784,3
0,-2.823529,-2.823529,-0.007843,-0.007843,-0.007843,-1.960784,-1.960784,-1.960784,3
0,-2.823529,-2.823529,-0.007843,-0.007843,-0.007843,-1.960784,-1.960784,-1.960784,3
0,-2.823529,-2.823529,-0.007843,-0.007843,-0.007843,-1.960784,-1.960784,-1.960784,3
0,-2.823529,-2.823529,-0.007843,-0.007843,-0.007843,-1.960784,-1.960784,-1.960784,3
0,-2.823529,-2.823529,-0.007843,-0.007843,-0.007843,-1.960784,-1.960784,-1.960784,3
0,-2.823529,-2.823529,-0.007843,-0.007843,-0.007843,-1.960784,-1.960784,-1.960784,3
0,-2.823529,-2.823529,-0.007843,-0.007843,-0.007843,-1.960784,-1.960784,-1.960784,3
0,-2.823529,-2.823529,-0.007843,-0.007843,-0.007843,-1.960784,-1.960784,-1.960784,3
0,-2.823529,-2.823529,-0.007843,-0.007843,-0.007843,-1.960784,-1.960784,-1.960784,3
0,-2.823529,-2.823529,-0.007843,-0.007843,-0.007843,-1.960784,-1.960784,-1.960784,3
0,-2.823529,-2.823529,-0.007843,-0.007843,-0.007843,-1.960784,-1.960784,-1.960784,3
0,-2.823529,-2.823529,-0.007843,-0.007843,-0.007843,-1.960784,-1.960784,-1.960784,3
0,-2.823529,-2.823529,-0.007843,-0.007843,-0.007843,-1.960784,-1.960784,-1.960784,3
0,-2.823529,-2.823529,-0.007843,-0.007843,-0.007843,-1.960784,-1.960784,-1.960784,3
0,-2.823529,-2.823529,-0.007843,-0.007843,-0.007843,-1.960784,-1.960784,-1.960784,3
0,-2.823529,-2.823529,-0.007843,-0.007843,-0.007843,-1.960784,-1.960784,-1.960784,3
0,-2.823529,-2.823529,-0.007843,-0.007843,-0.007843,-1.960784,-1.960784,-1.960784,3
0,-2.823529,-2.823529,-0.007843,-0.007843,-0.007843,-1.960784,-1.960784,-1.960784,3
0,-2.823529,-2.823529,-0.007843,-0.007843,-0.007843,-1.960784,-1.960784,-1.960784,3
0,-2.823529,-2.823529,-0.007843,-0.007843,-0.007843,-1.960784,-1.960784,-1.960784,3
0,-2.823529,-2.823529,-0.007843,-0.007843,-0.007843,-1.960784,-1.960784,-1.960784,3
0,-2.823529,-2.823529,-0.007843,-0.007843,-0.007843,-1.960784,-1.960784,-1.960784,3
0,-2.823529,-2.823529,-0.007843,-0.007843,-0.007843,-1.960784,-1.960784,-1.960784,3
0,-2.823529,-2.823529,-0.007843,-0.007843,-0.007843,-1.960784,-1.960784,-1.960784,3
0,-2.823529,-2.823529,-0.007843,-0.007843,-0.007843,-1.960784,-1.960784,-1.960784,3
0,-2.823529,-2.823529,-0.007843,-0.007843,-0.007843,-1.960784,-1.960784,-1.960784,3
0,-2.823529,-2.823529,-0.007843,-0.007843,-0.007843,-1.960784,-1.960784,-1.960784,3
0,-2.823529,-2.823529,-0.007843,-0.007843,-0.007843,-1.960784,-1.960784,-1.960784,3
0,-2.823529,-2.823529,-0.007843,-0.007843,-0.007843,-1.960784,-1.960784,-1.960784,3
0,-2.823529,-2.823529,-0.007843,-0.007843,-0.007843,-1.960784,-1.960784,-1.960784,3
0,-2.823529,-2.823529,-0.007843,-0.007843,-0.007843,-1.960784,-1.960784,-1.960784,3
0,-2.823529,-2.823529,-0.007843,-0.007843,-0.007843,-1.960784,-1.960784,-1.960784,3
0,-2.823529,-2.823529,-0.007843,-0.007843,-0.007843,-1.960784,-1.960784,-1.960784,3
0,-2.823529,-2.823529,-0.007843,-0.007843,-0.007843,-1.960784,-1.960784,-1.960784,3
0,-2.823529,-2.823529,-0.007843,-0.007843,-0.007843,-1.960784,-1.960784,-1.960784,3
0,-2.823529,-2.823529,-0.007843,-0.007843,-0.007843,-1.960784,-1.960784,-1.960784,3
0,-2.823529,-2.823529,-0.007843,-0.007843,-0.007843,-1.960784,-1.960784,-1.960784,3
0,-2.823529,-2.823529,-0.007843,-0.007843,-0.007843,-1.960784,-1.960784,-1.960784,3
0,-2.823529,-2.823529,-0.007843,-0.007843,-0.007843,-1.960784,-1.960784,-1.960784,3
0,-2.823529,-2.823529,-0.007843,-0.007843,-0.007843,-1.960784,-1.960784,-1.960784,3
0,-2.823529,-2.823529,-0.007843,-0.007843,-0.007843,-1.960784,-1.960784,-1.960784,3
0,-2.823529,-2.823529,-0.007843,-0.007843,-0.007843,-1.960784,-1.960784,-1.960784,3
0,-2.823529,-2.823529,-0.007843,-0.007843,-0.007843,-1.960784,-1.960784,-1.960784,3
0,-2.823529,-2.823529,-0.007843,-0.007843,-0.007843,-1.960784,-1.960784,-1.960784,3
0,-2.823529,-2.823529,-0.007843,-0.007843,-0.007843,-1.960784,-1.960784,-1.960784,3
0,-2.823529,-2.823529,-0.007843,-0.007843,-0.007843,-1.960784,-1.960784,-1.960784,3
0,-2.823529,-2.823529,-0.007843,-0.007843,-0.007843,-1.960784,-1.960784,-1.960784,3
0,-2.823529,-2.823529,-0.007843,-0.007843,-0.007843,-1.960784,-1.960784,-1.960784,3
0,-2.823529,-2.823529,-0.007843,-0.007843,-0.007843,-1.960784,-1.960784,-1.960784,3
0,-2.823529,-2.823529,-0.007843,-0.007843,-0.007843,-1.960784,-1.960784,-1.960784,3
0,-2.823529,-2.823529,-0.007843,-0.007843,-0.007843,-1.960784,-1.960784,-1.960784,3
0,-2.823529,-2.823529,-0.007843,-0.007843,0.007843,-1.960784,-1.960784,-1.960784,3
0,-2.823529,-2.823529,-0.007843,-0.007843,-0.007843,-1.960784,-1.960784,-1.960784,3
0,-2.823529,-2.823529,-0.007843,-0.007843,-0.007843,-1.960784,-1.960784,-1.960784,3
0,-2.823529,-2.823529,-0.007843,-0.007843,-0.007843,-1.960784,-1.960784,-1.960784,3
0,-2.823529,-2.823529,-0.007843,-0.007843,-0.007843,-1.960784,-1.960784,-1.960784,3
0,-2.823529,-2.823529,-0.007843,-0.007843,-0.007843,-1.960784,-1.960784,-1.960784,3
0,-2.823529,-2.823529,-0.007843,-0.007843,-0.007843,-1.960784,-1.960784,-1.960784,3
0,-2.823529,-2.823529,-0.007843,-0.007843,-0.007843,-1.960784,-1.960784,-1.960784,3
0,-2.823529,-2.823529,-0.007843,-0.007843,-0.007843,-1.960784,-1.960784,-1.960784,3
0,-2.823529,-2.823529,-0.007843,-0.007843,-0.007843,-1.960784,-1.960784,-1.960784,3
0,-2.823529,-2.823529,-0.007843,-0.007843,-0.007843,-1.960784,-1.960784,-1.960784,3
0,-2.823529,-2.823529,-0.007843,-0.007843,-0.007843,-1.960784,-1.960784,-1.960784,3
0,-2.823529,-2.823529,-0.007843,-0.007843,-0.007843,-1.960784,-1.960784,-1.960784,3
0,-2.823529,-2.823529,-0.007843,-0.007843,-0.007843,-1.960784,-1.960784,-1.960784,3
0,-2.823529,-2.823529,-0.007843,-0.007843,-0.007843,-1.960784,-1.960784,-1.960784,3
0,-2.823529,-2.823529,-0.007843,-0.007843,-0.007843,-1.960784,-1.960784,-1.960784,3
0,-2.823529,-2.823529,-0.007843,-0.007843,-0.007843,-1.960784,-1.960784,-1.960784,3
0,-2.823529,-2.823529,-0.007843,-0.007843,-0.007843,-1.960784,-1.960784,-1.960784,3
0,0,-2.823529,-0.007843,-0.007843,-0.007843,-1.960784,-1.960784,-1.960784,3
0,0,-2.823529,-0.007843,-0.007843,-0.007843,-1.960784,-1.960784,-1.960784,3
0,0,-2.823529,-0.007843,-0.007843,-0.007843,-1.960784,-1.960784,-1.960784,3
0,-2.823529,-2.823529,-0.007843,-0.007843,-0.007843,-1.960784,-1.960784,-1.960784,3
0,0,-2.823529,-0.007843,-0.007843,-0.007843,-1.960784,-1.960784,-1.960784,3
0,0,-2.823529,-0.007843,-0.007843,-0.007843,-1.960784,-1.960784,-1.960784,3
0,0,-2.823529,-0.007843,-0.007843,-0.007843,-1.960784,-1.960784,-1.960784,3
0,-2.823529,-2.823529,-0.007843,-0.007843,-0.007843,-1.960784,-1.960784,-1.960784,3
0,-2.823529,-2.823529,-0.007843,-0.007843,-0.007843,-1.960784,-1.960784,-1.960784,3
0,-2.823529,-2.823529,-0.007843,-0.007843,-0.007843,-1.960784,-1.960784,-1.960784,3
0,0,-2.823529,-0.007843,-0.007843,-0.007843,-1.960784,-1.960784,-1.960784,3
0,0,-2.823529,-0.007843,-0.007843,-0.007843,-1.960784,-1.960784,-1.960784,3
0,0,-2.823529,-0.007843,-0.007843,-0.007843,-1.960784,-1.960784,-1.960784,3
0,0,-2.823529,-0.007843,-0.007843,-0.007843,-1.960784,-1.960784,-1.960784,3
0,0,-2.823529,-0.007843,-0.007843,-0.007843,-1.960784,-1.960784,-1.960784,3
0,0,-2.823529,-0.007843,-0.007843,-0.007843,-1.960784,-1.960784,-1.960784,3
0,0,-2.823529,-0.007843,-0.007843,-0.007843,-1.960784,-1.960784,-1.960784,3
0,0,-2.823529,-0.007843,-0.007843,-0.007843,-1.960784,-1.960784,-1.960784,3
0,0,-2.823529,-0.007843,-0.007843,-0.007843,-1.960784,-1.960784,-1.960784,3
0,0,-2.823529,-0.007843,-0.007843,-0.007843,-1.960784,-1.960784,-1.960784,3
0,0,-2.823529,-0.007843,-0.007843,-0.007843,-1.960784,-1.960784,-1.960784,3
0,0,-2.823529,-0.007843,-0.007843,-0.007843,-1.960784,-1.960784,-1.960784,3
0,0,-2.823529,-0.007843,-0.007843,-0.007843,-1.960784,-1.960784,-1.960784,3
0,0,-2.823529,-0.007843,-0.007843,-0.007843,-1.960784,-1.960784,-1.960784,3
0,0,-2.823529,-0.007843,-0.007843,-0.007843,-1.960784,-1.960784,-1.960784,3
0,0,-2.823529,-0.007843,-0.007843,-0.007843,-1.960784,-1.960784,-1.960784,3
0,0,-2.823529,-0.007843,-0.007843,-0.007843,-1.960784,-1.960784,-1.960784,3
0,0,-2.823529,-0.007843,-0.007843,-0.007843,-1.960784,-1.960784,-1.960784,3
0,0,-2.823529,-0.007843,-0.007843,-0.007843,-1.960784,-1.960784,-1.960784,3
0,0,-2.823529,-0.007843,-0.007843,-0.007843,-1.960784,-1.960784,-1.960784,3
0,0,-2.823529,-0.007843,-0.007843,-0.023529,-1.960784,-1.960784,-1.960784,3
0,0,-2.823529,-0.007843,-0.007843,-0.007843,-1.960784,-1.960784,-1.960784,3
0,0,-2.823529,-0.007843,-0.007843,-0.007843,-1.960784,-1.960784,-1.960784,3
0,0,-2.823529,-0.007843,-0.007843,-0.007843,-1.960784,-1.960784,-1.960784,3
-2.823529,0,-2.823529,-0.007843,-0.007843,-0.007843,-1.960784,-1.960784,-1.960784,3
0,0,-2.823529,-0.007843,-0.007843,-0.007843,-1.960784,-1.960784,-1.960784,3
0,0,-2.823529,-0.007843,-0.007843,-0.007843,-1.960784,-1.960784,-1.960784,3
0,0,-2.823529,-0.007843,-0.007843,-0.007843,-1.960784,-1.960784,-1.960784,3
0,0,-2.823529,-0.007843,-0.007843,-0.007843,-1.960784,-1.960784,-1.960784,3
0,0,-2.823529,-0.007843,-0.007843,-0.007843,-1.960784,-1.960784,-1.960784,3
0,0,-2.823529,-0.007843,-0.007843,-0.007843,-1.960784,-1.960784,-1.960784,3
0,0,-2.823529,-0.007843,-0.007843,-0.007843,-1.960784,-1.960784,-1.960784,3
0,0,-2.823529,-0.007843,-0.007843,-0.007843,-1.960784,-1.960784,-1.960784,3
0,0,-2.823529,-0.007843,-0.007843,-0.007843,-1.960784,-1.960784,-1.960784,3
0,0,-2.823529,-0.007843,-0.007843,-0.007843,-1.960784,-1.960784,-1.960784,3
0,0,-2.823529,-0.007843,-0.007843,-0.007843,-1.960784,-1.960784,-1.960784,3
0,0,-2.823529,-0.007843,-0.007843,-0.007843,-1.960784,-1.960784,-1.960784,3
0,0,-2.823529,-0.007843,-0.007843,-0.007843,-1.960784,-1.960784,-1.960784,3
0,0,-2.823529,-0.007843,-0.007843,-0.007843,-1.960784,-1.960784,-1.960784,3
0,0,-2.823529,-0.007843,-0.007843,-0.007843,-1.960784,-1.960784,-1.960784,3
0,0,-2.823529,-0.007843,-0.007843,-0.007843,-1.960784,-1.960784,-1.960784,3
0,0,-2.823529,-0.007843,-0.007843,-0.007843,-1.960784,-1.960784,-1.960784,3
-2.823529,0,-2.823529,-0.007843,-0.007843,-0.007843,-1.960784,-1.960784,-1.960784,3
0,0,-2.823529,-0.007843,-0.007843,0.007843,-1.960784,-1.960784,-1.960784,3
0,0,-2.823529,-0.007843,-0.007843,-0.007843,-1.960784,-1.960784,-1.960784,3
0,0,-2.823529,-0.007843,-0.007843,-0.007843,-1.960784,-1.960784,-1.960784,3
0,0,-2.823529,-0.007843,-0.007843,-0.007843,-1.960784,-1.960784,-1.960784,3
0,0,-2.823529,-0.007843,-0.007843,-0.007843,-1.960784,-1.960784,-1.960784,3
0,0,-2.823529,-0.007843,-0.007843,-0.007843,-1.960784,-1.960784,-1.960784,3
0,0,-2.823529,-0.007843,-0.007843,-0.007843,-1.960784,-1.960784,-1.960784,3
0,0,-2.823529,-0.007843,-0.007843,-0.007843,-1.960784,-1.960784,-1.960784,3
0,0,-2.823529,-0.007843,-0.007843,-0.007843,-1.960784,-1.960784,-1.960784,3
0,0,-2.823529,-0.007843,-0.007843,-0.007843,-1.960784,-1.960784,-1.960784,3
0,0,-2.823529,-0.007843,-0.007843,-0.007843,-1.960784,-1.960784,-1.960784,3
0,0,-2.823529,-0.007843,-0.007843,-0.007843,-1.960784,-1.960784,-1.960784,3
0,0,-2.823529,-0.007843,-0.007843,-0.007843,-1.960784,-1.960784,-1.960784,3
0,0,-2.823529,-0.007843,-0.007843,-0.007843,-1.960784,-1.960784,-1.960784,3
0,0,-2.823529,-0.007843,-0.007843,-0.007843,-1.960784,-1.960784,-1.960784,3
0,0,-2.823529,-0.007843,-0.007843,-0.007843,-1.960784,-1.960784,-1.960784,3
0,0,-2.823529,-0.007843,-0.007843,-0.007843,-1.960784,-1.960784,-1.960784,3
0,0,-2.823529,-0.007843,-0.007843,-0.007843,-1.960784,-1.960784,-1.960784,3
0,0,-2.823529,-0.007843,-0.007843,-0.007843,-1.960784,-1.960784,-1.960784,3
0,-2.823529,-2.823529,-0.007843,-0.007843,-0.007843,-1.960784,-1.960784,-1.960784,3
0,-2.823529,-2.823529,-0.007843,-0.007843,-0.007843,-1.960784,-1.960784,-1.960784,3
0,0,-2.823529,-0.007843,-0.007843,-0.007843,-1.960784,-1.960784,-1.960784,3
0,-2.823529,-2.823529,-0.007843,-0.007843,-0.007843,-1.960784,-1.960784,-1.960784,3
0,-2.823529,-2.823529,-0.007843,-0.007843,-0.007843,-1.960784,-1.960784,-1.960784,3
0,-2.823529,-2.823529,-0.007843,-0.007843,-0.007843,-1.960784,-1.960784,-1.960784,3
0,-2.823529,-2.823529,-0.007843,-0.007843,-0.007843,-1.960784,-1.960784,-1.960784,3
0,-2.823529,-2.823529,-0.007843,-0.007843,-0.007843,-1.960784,-1.960784,-1.960784,3
0,-2.823529,-2.823529,-0.007843,-0.007843,-0.007843,-1.960784,-1.960784,-1.960784,3
0,-2.823529,-2.823529,-0.007843,-0.007843,-0.007843,-1.960784,-1.960784,-1.960784,3
0,-2.823529,-2.823529,-0.007843,-0.007843,-0.007843,-1.960784,-1.960784,-1.960784,3
0,-2.823529,-2.823529,-0.007843,-0.007843,-0.007843,-1.960784,-1.960784,-1.960784,3
0,-2.823529,-2.823529,-0.007843,-0.007843,-0.007843,-1.960784,-1.960784,-1.960784,3
0,-2.823529,-2.823529,-0.007843,-0.007843,-0.007843,-1.960784,-1.960784,-1.960784,3
0,-2.823529,-2.823529,-0.007843,-0.007843,-0.007843,-1.960784,-1.960784,-1.960784,3
0,-2.823529,-2.823529,-0.007843,-0.007843,-0.007843,-1.960784,-1.960784,-1.960784,3
0,-2.823529,-2.823529,-0.007843,-0.007843,-0.007843,-1.960784,-1.960784,-1.960784,3
0,-2.823529,-2.823529,-0.007843,-0.007843,-0.007843,-1.960784,-1.960784,-1.960784,3
0,-2.823529,-2.823529,-0.007843,-0.007843,-0.007843,-1.960784,-1.960784,-1.960784,3
0,-2.823529,-2.823529,-0.007843,-0.007843,-0.007843,-1.960784,-1.960784,-1.960784,3
0,-2.823529,-2.823529,-0.007843,-0.007843,-0.007843,-1.960784,-1.960784,-1.960784,3
0,-2.823529,-2.823529,-0.007843,-0.007843,-0.007843,-1.960784,-1.960784,-1.960784,3
0,0,-2.823529,-0.007843,-0.007843,-0.007843,-1.960784,-1.960784,-1.960784,3
0,0,-2.823529,-0.007843,-0.007843,-0.007843,-1.960784,-1.960784,-1.960784,3
0,0,-2.823529,-0.007843,-0.007843,-0.007843,-1.960784,-1.960784,-1.960784,3
0,0,-2.823529,-0.007843,-0.007843,-0.007843,-1.960784,-1.960784,-1.960784,3
0,0,-2.823529,-0.007843,-0.007843,-0.007843,-1.960784,-1.960784,-1.960784,3
0,0,-2.823529,-0.007843,-0.007843,-0.007843,-1.960784,-1.960784,-1.960784,3
0,0,-2.823529,-0.007843,-0.007843,-0.007843,-1.960784,-1.960784,-1.960784,3
0,0,-2.823529,-0.007843,-0.007843,-0.007843,-1.960784,-1.960784,-1.960784,3
0,-2.823529,-2.823529,-0.007843,-0.007843,-0.007843,-1.960784,-1.960784,-1.960784,3
0,-2.823529,-2.823529,-0.007843,-0.007843,-0.007843,-1.960784,-1.960784,-1.960784,3
0,-2.823529,-2.823529,-0.007843,-0.007843,-0.007843,-1.960784,-1.960784,-1.960784,3
0,-2.823529,-2.823529,-0.007843,-0.007843,-0.007843,-1.960784,-1.960784,-1.960784,3
0,-2.823529,-2.823529,-0.007843,-0.007843,-0.007843,-1.960784,-1.960784,-1.960784,3
0,-2.823529,-2.823529,-0.007843,-0.007843,-0.007843,-1.960784,-1.960784,-1.960784,3
0,0,-2.823529,-0.007843,-0.007843,-0.007843,-1.960784,-1.960784,-1.960784,3
0,0,-2.823529,-0.007843,-0.007843,-0.007843,-1.960784,-1.960784,-1.960784,3
0,0,-2.823529,-0.007843,-0.007843,-0.007843,-1.960784,-1.960784,-1.960784,3
0,-2.823529,-2.823529,-0.007843,-0.007843,-0.007843,-1.960784,-1.960784,-1.960784,3
0,-2.823529,-2.823529,-0.007843,-0.007843,-0.007843,-1.960784,-1.960784,-1.960784,3
0,0,-2.823529,-0.007843,-0.007843,-0.007843,-1.960784,-1.960784,-1.960784,3
0,0,-2.823529,-0.007843,-0.007843,-0.007843,-1.960784,-1.960784,-1.960784,3
0,0,-2.823529,-0.007843,-0.007843,-0.007843,-1.960784,-1.960784,-1.960784,3
0,0,-2.823529,-0.007843,-0.007843,-0.007843,-1.960784,-1.960784,-1.960784,3
0,0,-2.823529,-0.007843,-0.007843,-0.007843,-1.960784,-1.960784,-1.960784,3
0,0,-2.823529,-0.007843,-0.007843,-0.007843,-1.960784,-1.960784,-1.960784,3
0,0,-2.823529,-0.007843,-0.007843,-0.007843,-1.960784,-1.960784,-1.960784,3
0,-2.823529,-2.823529,-0.007843,-0.007843,-0.007843,-1.960784,-1.960784,-1.960784,3
0,-2.823529,-2.823529,-0.007843,-0.007843,-0.007843,-1.960784,-1.960784,-1.960784,3
0,-2.823529,-2.823529,-0.007843,-0.007843,-0.007843,-1.960784,-1.960784,-1.960784,3
0,-2.823529,-2.823529,-0.007843,-0.007843,0.007843,-1.960784,-1.960784,-1.960784,3
0,-2.823529,-2.823529,-0.007843,-0.007843,-0.007843,-1.960784,-1.960784,-1.960784,3
0,-2.823529,-2.823529,-0.007843,-0.007843,-0.007843,-1.960784,-1.960784,-1.960784,3
0,-2.823529,-2.823529,-0.007843,-0.007843,-0.007843,-1.960784,-1.960784,-1.960784,3
0,-2.823529,-2.823529,-0.007843,-0.007843,-0.007843,-1.960784,-1.960784,-1.960784,3
0,-2.823529,-2.823529,-0.007843,-0.007843,-0.007843,-1.960784,-1.960784,-1.960784,3
0,-2.823529,-2.823529,-0.007843,-0.007843,-0.007843,-1.960784,-1.960784,-1.960784,3
0,-2.823529,-2.823529,-0.007843,-0.007843,-0.007843,-1.960784,-1.960784,-1.960784,3
0,-2.823529,-2.823529,-0.007843,-0.007843,-0.007843,-1.960784,-1.960784,-1.960784,3
0,0,-2.823529,-0.007843,-0.007843,-0.007843,-1.960784,-1.960784,-1.960784,3
0,0,-2.823529,-0.007843,-0.007843,-0.007843,-1.960784,-1.960784,-1.960784,3
0,0,-2.823529,-0.007843,-0.007843,-0.007843,-1.960784,-1.960784,-1.960784,3
0,-2.823529,-2.823529,-0.007843,-0.007843,-0.007843,-1.960784,-1.960784,-1.960784,3
0,-2.823529,-2.823529,-0.007843,-0.007843,-0.007843,-1.960784,-1.960784,-1.960784,3
0,-2.823529,-2.823529,-0.007843,-0.007843,-0.007843,-1.960784,-1.960784,-1.960784,3
0,-2.823529,-2.823529,-0.007843,-0.007843,-0.007843,-1.960784,-1.960784,-1.960784,3
0,-2.823529,-2.823529,-0.007843,-0.007843,-0.007843,-1.960784,-1.960784,-1.960784,3
0,0,-2.823529,-0.007843,-0.007843,-0.007843,-1.960784,-1.960784,-1.960784,3
0,0,-2.823529,-0.007843,-0.007843,-0.007843,-1.960784,-1.960784,-1.960784,3
0,0,-2.823529,-0.007843,-0.007843,-0.007843,-1.960784,-1.960784,-1.960784,3
0,0,-2.823529,-0.007843,-0.007843,-0.007843,-1.960784,-1.960784,-1.960784,3
0,0,-2.823529,-0.007843,-0.007843,-0.007843,-1.960784,-1.960784,-1.960784,3
0,-2.823529,-2.823529,-0.007843,-0.007843,-0.007843,-1.960784,-1.960784,-1.960784,3
0,-2.823529,-2.823529,-0.007843,-0.007843,-0.007843,-1.960784,-1.960784,-1.960784,3
0,-2.823529,-2.823529,-0.007843,-0.007843,-0.007843,-1.960784,-1.960784,-1.960784,3
0,-2.823529,-2.823529,-0.007843,-0.007843,-0.007843,-1.960784,-1.960784,-1.960784,3
0,-2.823529,-2.823529,-0.007843,-0.007843,-0.007843,-1.960784,-1.960784,-1.960784,3
0,-2.823529,-2.823529,-0.007843,-0.007843,-0.007843,-1.960784,-1.960784,-1.960784,3
0,-2.823529,-2.823529,-0.007843,-0.007843,-0.007843,-1.960784,-1.960784,-1.960784,3
0,-2.823529,-2.823529,-0.007843,-0.007843,-0.007843,-1.960784,-1.960784,-1.960784,3
0,-2.823529,-2.823529,-0.007843,-0.007843,-0.007843,-1.960784,-1.960784,-1.960784,3
0,-2.823529,-2.823529,-0.007843,-0.007843,-0.007843,-1.960784,-1.960784,-1.960784,3
0,-2.823529,-2.823529,-0.007843,-0.007843,-0.007843,-1.960784,-1.960784,-1.960784,3
0,-2.823529,-2.823529,-0.007843,-0.007843,-0.007843,-1.960784,-1.960784,-1.960784,3
0,-2.823529,-2.823529,-0.007843,-0.007843,-0.007843,-1.960784,-1.960784,-1.960784,3
0,-2.823529,-2.823529,-0.007843,-0.007843,-0.007843,-1.960784,-1.960784,-1.960784,3
0,-2.823529,-2.823529,-0.007843,-0.007843,-0.007843,-1.960784,-1.960784,-1.960784,3
0,-2.823529,-2.823529,-0.007843,-0.007843,-0.007843,-1.960784,-1.960784,-1.960784,3
0,-2.823529,-2.823529,-0.007843,-0.007843,-0.007843,-1.960784,-1.960784,-1.960784,3
0,-2.823529,-2.823529,-0.007843,-0.007843,-0.007843,-1.960784,-1.960784,-1.960784,3
0,-2.823529,-2.823529,-0.007843,-0.007843,-0.007843,-1.960784,-1.960784,-1.960784,3
0,-2.823529,-2.823529,-0.007843,-0.007843,-0.007843,-1.960784,-1.960784,-1.960784,3
0,-2.823529,-2.823529,-0.007843,-0.007843,-0.007843,-1.960784,-1.960784,-1.960784,3
0,-2.823529,-2.823529,-0.007843,-0.007843,-0.007843,-1.960784,-1.960784,-1.960784,3
0,-2.823529,-2.823529,-0.007843,-0.007843,-0.007843,-1.960784,-1.960784,-1.960784,3
0,-2.823529,-2.823529,-0.007843,-0.007843,-0.007843,-1.960784,-1.960784,-1.960784,3
0,-2.823529,-2.823529,-0.007843,-0.007843,-0.007843,-1.960784,-1.960784,-1.960784,3
0,-2.823529,-2.823529,-0.007843,-0.007843,-0.007843,-1.960784,-1.960784,-1.960784,3
0,-2.823529,-2.823529,-0.007843,-0.007843,-0.007843,-1.960784,-1.960784,-1.960784,3
0,-2.823529,-2.823529,-0.007843,-0.007843,-0.007843,-1.960784,-1.960784,-1.960784,3
0,-2.823529,-2.823529,-0.007843,-0.007843,-0.007843,-1.960784,-1.960784,-1.960784,3
0,-2.823529,-2.823529,-0.007843,-0.007843,0.007843,-1.960784,-1.960784,-1.960784,3
0,-2.823529,-2.823529,-0.007843,-0.007843,-0.007843,-1.960784,-1.960784,-1.960784,3
0,-2.823529,-2.823529,-0.007843,-0.007843,-0.007843,-1.960784,-1.960784,-1.960784,3
0,-2.823529,-2.823529,-0.007843,-0.007843,-0.007843,-1.960784,-1.960784,-1.960784,3
0,-2.823529,-2.823529,-0.007843,-0.007843,-0.007843,-1.960784,-1.960784,-1.960784,3
0,-2.823529,-2.823529,-0.007843,-0.007843,-0.007843,-1.960784,-1.960784,-1.960784,3
0,-2.823529,-2.823529,-0.007843,-0.007843,-0.007843,-1.960784,-1.960784,-1.960784,3
0,-2.823529,-2.823529,-0.007843,-0.007843,-0.007843,-1.960784,-1.960784,-1.960784,3
0,-2.823529,-2.823529,-0.007843,-0.007843,-0.007843,-1.960784,-1.960784,-1.960784,3
0,-2.823529,-2.823529,-0.007843,-0.007843,-0.007843,-1.960784,-1.960784,-1.960784,3
0,-2.823529,-2.823529,-0.007843,-0.007843,-0.007843,-1.960784,-1.960784,-1.960784,3
0,-2.823529,-2.823529,-0.007843,-0.007843,-0.007843,-1.960784,-1.960784,-1.960784,3
0,-2.823529,-2.823529,-0.007843,-0.007843,-0.007843,-1.960784,-1.960784,-1.960784,3
-2.823529,-2.823529,-2.823529,-0.007843,-0.007843,-0.007843,-1.960784,-1.960784,-1.960784,3
-2.823529,-2.823529,-2.823529,-0.007843,-0.007843,-0.007843,-1.960784,-1.960784,-1.960784,3
-2.823529,0,-2.823529,-0.007843,-0.007843,-0.007843,-1.960784,-1.960784,-1.960784,3
-2.823529,-2.823529,-2.823529,-0.007843,-0.007843,-0.007843,-1.960784,-1.960784,-1.960784,3
-2.823529,-2.823529,-2.823529,-0.007843,-0.007843,-0.007843,-1.960784,-1.960784,-1.960784,3
-2.823529,-2.823529,-2.823529,-0.007843,-0.007843,-0.007843,-1.960784,-1.960784,-1.960784,3
-2.823529,-2.823529,-2.823529,-0.007843,-0.007843,-0.007843,-1.960784,-1.960784,-1.960784,3
-2.823529,-2.823529,-2.823529,-0.007843,-0.007843,-0.007843,-1.960784,-1.960784,-1.960784,3
-2.823529,-2.823529,-2.823529,-0.007843,-0.007843,-0.007843,-1.960784,-1.960784,-1.960784,3
-2.823529,-2.823529,-2.823529,-0.007843,-0.007843,-0.007843,-1.960784,-1.960784,-1.960784,3
-2.823529,-2.823529,-2.823529,-0.007843,-0.007843,-0.007843,-1.960784,-1.960784,-1.960784,3
-2.823529,-2.823529,-2.823529,-0.007843,-0.007843,-0.007843,-1.960784,-1.960784,-1.960784,3
-2.823529,-2.823529,-2.823529,-0.007843,-0.007843,-0.007843,-1.960784,-1.960784,-1.960784,3
-2.823529,-2.823529,-2.823529,-0.007843,-0.007843,-0.007843,-1.960784,-1.960784,-1.960784,3
0,-2.823529,-2.823529,-0.007843,-0.007843,-0.023529,-1.960784,-1.960784,-1.960784,3
0,-2.823529,-2.823529,-0.007843,-0.007843,-0.007843,-1.960784,-1.960784,-1.960784,3
0,0,-2.823529,-0.007843,-0.007843,-0.007843,-1.960784,-1.960784,-1.960784,3
-2.823529,-2.823529,-2.823529,-0.007843,-0.007843,-0.007843,-1.960784,-1.960784,-1.960784,3
-2.823529,0,-2.823529,-0.007843,-0.007843,-0.007843,-1.960784,-1.960784,-1.960784,3
-2.823529,-2.823529,-2.823529,-0.007843,-0.007843,-0.007843,-1.960784,-1.960784,-1.960784,3
-2.823529,-2.823529,-2.823529,-0.007843,-0.007843,-0.007843,-1.960784,-1.960784,-1.960784,3
0,-2.823529,-2.823529,-0.007843,-0.007843,-0.007843,-1.960784,-1.960784,-1.960784,3
0,0,-2.823529,-0.007843,-0.007843,-0.007843,-1.960784,-1.960784,-1.960784,3
0,0,-2.823529,-0.007843,-0.007843,-0.007843,-1.960784,-1.960784,-1.960784,3
0,0,-2.823529,-0.007843,-0.007843,-0.007843,-1.960784,-1.960784,-1.960784,3
0,0,-2.823529,-0.007843,-0.007843,-0.007843,-1.960784,-1.960784,-1.960784,3
0,0,-2.823529,-0.007843,-0.007843,-0.007843,-1.960784,-1.960784,-1.960784,3
0,0,-2.823529,-0.007843,-0.007843,-0.007843,-1.960784,-1.960784,-1.960784,3
0,0,-2.823529,-0.007843,-0.007843,-0.007843,-1.960784,-1.960784,-1.960784,3
0,0,-2.823529,-0.007843,-0.007843,-0.007843,-1.960784,-1.960784,-1.960784,3
0,0,-2.823529,-0.007843,-0.007843,-0.007843,-1.960784,-1.960784,-1.960784,3
0,0,-2.823529,-0.007843,-0.007843,-0.007843,-1.960784,-1.960784,-1.960784,3
0,0,-2.823529,-0.007843,-0.007843,-0.007843,-1.960784,-1.960784,-1.960784,3
0,0,-2.823529,-0.007843,-0.007843,-0.007843,-1.960784,-1.960784,-1.960784,3
0,0,-2.823529,-0.007843,-0.007843,-0.007843,-1.960784,-1.960784,-1.960784,3
0,0,-2.823529,-0.007843,-0.007843,-0.007843,-1.960784,-1.960784,-1.960784,3
0,0,-2.823529,-0.007843,-0.007843,-0.007843,-1.960784,-1.960784,-1.960784,3
0,0,-2.823529,-0.007843,-0.007843,-0.007843,-1.960784,-1.960784,-1.960784,3
0,0,-2.823529,-0.007843,-0.007843,-0.007843,-1.960784,-1.960784,-1.960784,3
-2.823529,0,-2.823529,-0.007843,-0.007843,-0.007843,-1.960784,-1.960784,-1.960784,3
0,0,-2.823529,-0.007843,-0.007843,-0.007843,-1.960784,-1.960784,-1.960784,3
-2.823529,0,-2.823529,-0.007843,-0.007843,-0.007843,-1.960784,-1.960784,-1.960784,3
-2.823529,0,-2.823529,-0.007843,-0.007843,-0.007843,-1.960784,-1.960784,-1.960784,3
0,0,-2.823529,-0.007843,-0.007843,-0.007843,-1.960784,-1.960784,-1.960784,3
-2.823529,0,-2.823529,-0.007843,-0.007843,-0.007843,-1.960784,-1.960784,-1.960784,3
0,0,-2.823529,-0.007843,-0.007843,-0.007843,-1.960784,-1.960784,-1.960784,3
-2.823529,0,-2.823529,-0.007843,-0.007843,-0.007843,-1.960784,-1.960784,-1.960784,3
-2.823529,0,-2.823529,-0.007843,-0.007843,-0.007843,-1.960784,-1.960784,-1.960784,3
0,0,-2.823529,-0.007843,-0.007843,-0.007843,-1.960784,-1.960784,-1.960784,3
0,0,-2.823529,-0.007843,-0.007843,-0.007843,-1.960784,-1.960784,-1.960784,3
-2.823529,0,-2.823529,-0.007843,-0.007843,-0.007843,-1.960784,-1.960784,-1.960784,3
-2.823529,0,-2.823529,-0.007843,-0.007843,-0.007843,-1.960784,-1.960784,-1.960784,3
-2.823529,0,-2.823529,-0.007843,-0.007843,-0.007843,-1.960784,-1.960784,-1.960784,3
-2.823529,0,-2.823529,-0.007843,-0.007843,-0.007843,-1.960784,-1.960784,-1.960784,3
-2.823529,0,-2.823529,-0.007843,-0.007843,-0.007843,-1.960784,-1.960784,-1.960784,3
-2.823529,0,-2.823529,-0.007843,-0.007843,-0.007843,-1.960784,-1.960784,-1.960784,3
-2.823529,0,-2.823529,-0.007843,-0.007843,-0.007843,-1.960784,-1.960784,-1.960784,3
-2.823529,0,-2.823529,-0.007843,-0.007843,-0.007843,-1.960784,-1.960784,-1.960784,3
-2.823529,0,-2.823529,-0.007843,-0.007843,-0.007843,-1.960784,-1.960784,-1.960784,3
-2.823529,-2.823529,-2.823529,-0.007843,-0.007843,-0.007843,-1.960784,-1.960784,-1.960784,3
-2.823529,-2.823529,-2.823529,-0.007843,-0.007843,-0.007843,-1.960784,-1.960784,-1.960784,3
-2.823529,-2.823529,-2.823529,-0.007843,-0.007843,-0.007843,-1.960784,-1.960784,-1.960784,3
-2.823529,-2.823529,-2.823529,-0.007843,-0.007843,-0.007843,-1.960784,-1.960784,-1.960784,3
-2.823529,-2.823529,-2.823529,-0.007843,-0.007843,-0.007843,-1.960784,-1.960784,-1.960784,3
0,-2.823529,-2.823529,-0.007843,-0.007843,-0.007843,-1.960784,-1.960784,-1.960784,3
0,-2.823529,-2.823529,-0.007843,-0.007843,-0.007843,-1.960784,-1.960784,-1.960784,3
-2.823529,-2.823529,-2.823529,-0.007843,-0.007843,-0.007843,-1.960784,-1.960784,-1.960784,3
-2.823529,-2.823529,-2.823529,-0.007843,-0.007843,-0.007843,-1.960784,-1.960784,-1.960784,3
-2.823529,-2.823529,-2.823529,-0.007843,-0.007843,-0.007843,-1.960784,-1.960784,-1.960784,3
-2.823529,-2.823529,-2.823529,-0.007843,-0.007843,0.007843,-1.960784,-1.960784,-1.960784,3
-2.823529,-2.823529,-2.823529,-0.007843,-0.007843,-0.007843,-1.960784,-1.960784,-1.960784,3
-2.823529,-2.823529,-2.823529,-0.007843,-0.007843,-0.007843,-1.960784,-1.960784,-1.960784,3
-2.823529,-2.823529,-2.823529,-0.007843,-0.007843,-0.007843,-1.960784,-1.960784,-1.960784,3
-2.823529,-2.823529,-2.823529,-0.007843,-0.007843,-0.007843,-1.960784,-1.960784,-1.960784,3
0,-2.823529,-2.823529,-0.007843,-0.007843,-0.007843,-1.960784,-1.960784,-1.960784,3
0,-2.823529,-2.823529,-0.007843,-0.007843,-0.007843,-1.960784,-1.960784,-1.960784,3
0,-2.823529,-2.823529,-0.007843,-0.007843,-0.007843,-1.960784,-1.960784,-1.960784,3
0,-2.823529,-2.823529,-0.007843,-0.007843,-0.007843,-1.960784,-1.960784,-1.960784,3
0,-2.823529,-2.823529,-0.007843,-0.007843,-0.007843,-1.960784,-1.960784,-1.960784,3
0,0,-2.823529,-0.007843,-0.007843,-0.007843,-1.960784,-1.960784,-1.960784,3
0,0,-2.823529,-0.007843,-0.007843,-0.007843,-1.960784,-1.960784,-1.960784,3
0,0,-2.823529,-0.007843,-0.007843,-0.007843,-1.960784,-1.960784,-1.960784,3
0,0,-2.823529,-0.007843,-0.007843,-0.007843,-1.960784,-1.960784,-1.960784,3
0,0,-2.823529,-0.007843,-0.007843,-0.007843,-1.960784,-1.960784,-1.960784,3
0,0,-2.823529,-0.007843,-0.007843,-0.007843,-1.960784,-1.960784,-1.960784,3
0,0,-2.823529,-0.007843,-0.007843,-0.007843,-1.960784,-1.960784,-1.960784,3
0,0,-2.823529,-0.007843,-0.007843,-0.007843,-1.960784,-1.960784,-1.960784,3
0,0,-2.823529,-0.007843,-0.007843,-0.007843,-1.960784,-1.960784,-1.960784,3
-2.823529,0,0,-0.007843,-0.007843,-0.007843,-1.960784,-1.960784,-1.960784,3
-2.823529,0,0,-0.007843,-0.007843,-0.007843,-1.960784,-1.960784,-1.960784,3
-2.823529,0,0,-0.007843,-0.007843,-0.007843,-1.960784,-1.960784,-1.960784,3
-2.823529,0,-2.823529,-0.007843,-0.007843,-0.007843,-1.960784,-1.960784,-1.960784,3
0,0,-2.823529,-0.007843,-0.007843,-0.007843,-1.960784,-1.960784,-1.960784,3
0,0,-2.823529,-0.007843,-0.007843,-0.007843,-1.960784,-1.960784,-1.960784,3
0,0,0,-0.007843,-0.007843,-0.007843,-1.960784,-1.960784,-1.960784,3
0,0,0,-0.007843,-0.007843,-0.007843,-1.960784,-1.960784,-1.960784,3
0,0,-2.823529,-0.007843,-0.007843,-0.007843,-1.960784,-1.960784,-1.960784,3
0,0,-2.823529,-0.007843,-0.007843,-0.007843,-1.960784,-1.960784,-1.960784,3
0,-2.823529,-2.823529,-0.007843,-0.007843,-0.007843,-1.960784,-1.960784,-1.960784,3
0,-2.823529,-2.823529,-0.007843,-0.007843,-0.007843,-1.960784,-1.960784,-1.960784,3
-2.823529,-2.823529,-2.823529,-0.007843,-0.007843,-0.007843,-1.960784,-1.960784,-1.960784,3
0,-2.823529,-2.823529,-0.007843,-0.007843,-0.007843,-1.960784,-1.960784,-1.960784,3
0,-2.823529,-2.823529,-0.007843,-0.007843,-0.007843,-1.960784,-1.960784,-1.960784,3
0,-2.823529,0,-0.007843,-0.007843,-0.007843,-1.960784,-1.960784,-1.960784,3
0,-2.823529,0,-0.007843,-0.007843,-0.007843,-1.960784,-1.960784,-1.960784,3
0,-2.823529,0,-0.007843,-0.007843,-0.007843,-1.960784,-1.960784,-1.960784,3
0,-2.823529,0,-0.007843,-0.007843,-0.007843,-1.960784,-1.960784,-1.960784,3
0,-2.823529,0,-0.007843,-0.007843,-0.007843,-1.960784,-1.960784,-1.960784,3
0,-2.823529,0,-0.007843,-0.007843,-0.007843,-1.960784,-1.960784,-1.960784,3
0,-2.823529,0,-0.007843,-0.007843,-0.007843,-1.960784,-1.960784,-1.960784,3
0,-2.823529,0,-0.007843,-0.007843,-0.007843,-1.960784,-1.960784,-1.960784,3
0,-2.823529,0,-0.007843,-0.007843,-0.007843,-1.960784,-1.960784,-1.960784,3
0,-2.823529,0,-0.007843,-0.007843,-0.007843,-1.960784,-1.960784,-1.960784,3
0,-2.823529,0,-0.007843,-0.007843,-0.007843,-1.960784,-1.960784,-1.960784,3
0,0,0,-0.007843,-0.007843,-0.007843,-1.960784,-1.960784,-1.960784,3
0,-2.823529,0,-0.007843,-0.007843,-0.007843,-1.960784,-1.960784,-1.960784,3
0,-2.823529,0,-0.007843,-0.007843,-0.007843,-1.960784,-1.960784,-1.960784,3
0,-2.823529,0,-0.007843,-0.007843,-0.007843,-1.960784,-1.960784,-1.960784,3
0,-2.823529,0,-0.007843,-0.007843,-0.007843,-1.960784,-1.960784,-1.960784,3
0,-2.823529,0,-0.007843,-0.007843,-0.007843,-1.960784,-1.960784,-1.960784,3
0,0,0,-0.007843,-0.007843,-0.007843,-1.960784,-1.960784,-1.960784,3
0,-2.823529,0,-0.007843,-0.007843,-0.007843,-1.960784,-1.960784,-1.960784,3
0,-2.823529,0,-0.007843,-0.007843,-0.007843,-1.960784,-1.960784,-1.960784,3
0,-2.823529,0,-0.007843,-0.007843,-0.007843,-1.960784,-1.960784,-1.960784,3
0,-2.823529,0,-0.007843,-0.007843,-0.007843,-1.960784,-1.960784,-1.960784,3
0,0,0,-0.007843,-0.007843,-0.007843,-1.960784,-1.960784,-1.960784,3
0,-2.823529,-2.823529,-0.007843,-0.007843,-0.007843,-1.960784,-1.960784,-1.960784,3
0,-2.823529,-2.823529,-0.007843,-0.007843,-0.023529,-1.960784,-1.960784,-1.960784,3
0,0,-2.823529,-0.007843,-0.007843,-0.007843,-1.960784,-1.960784,-1.960784,3
0,0,-2.823529,-0.007843,-0.007843,-0.007843,-1.960784,-1.960784,-1.960784,3
0,0,-2.823529,-0.007843,-0.007843,-0.007843,-1.960784,-1.960784,-1.960784,3
0,0,-2.823529,-0.007843,-0.007843,-0.007843,-1.960784,-1.960784,-1.960784,3
0,0,-2.823529,-0.007843,-0.007843,-0.007843,-1.960784,-1.960784,-1.960784,3
0,0,-2.823529,-0.007843,-0.007843,-0.007843,-1.960784,-1.960784,-1.960784,3
0,0,-2.823529,-0.007843,-0.007843,-0.007843,-1.960784,-1.960784,-1.960784,3
0,0,-2.823529,-0.007843,-0.007843,-0.007843,-1.960784,-1.960784,-1.960784,3
0,0,-2.823529,-0.007843,-0.007843,-0.007843,-1.960784,-1.960784,-1.960784,3
0,0,-2.823529,-0.007843,-0.007843,-0.007843,-1.960784,-1.960784,-1.960784,3
0,0,-2.823529,-0.007843,-0.007843,-0.007843,-1.960784,-1.960784,-1.960784,3
0,0,-2.823529,-0.007843,-0.007843,-0.007843,-1.960784,-1.960784,-1.960784,3
0,0,-2.823529,-0.007843,-0.007843,-0.007843,-1.960784,-1.960784,-1.960784,3
0,0,0,-0.007843,-0.007843,-0.007843,-1.960784,-1.960784,-1.960784,3
0,0,0,-0.007843,-0.007843,-0.007843,-1.960784,-1.960784,-1.960784,3
0,-2.823529,-2.823529,-0.007843,-0.007843,-0.007843,-1.960784,-1.960784,-1.960784,3
0,-2.823529,0,-0.007843,-0.007843,-0.007843,-1.960784,-1.960784,-1.960784,3
0,-2.823529,0,-0.007843,-0.007843,-0.007843,-1.960784,-1.960784,-1.960784,3
0,-2.823529,0,-0.007843,-0.007843,-0.007843,-1.960784,-1.960784,-1.960784,3
0,-2.823529,0,-0.007843,-0.007843,-0.007843,-1.960784,-1.960784,-1.960784,3
0,-2.823529,0,-0.007843,-0.007843,-0.007843,-1.960784,-1.960784,-1.960784,3
0,-2.823529,0,-0.007843,-0.007843,-0.007843,-1.960784,-1.960784,-1.960784,3
0,-2.823529,0,-0.007843,-0.007843,-0.007843,-1.960784,-1.960784,-1.960784,3
0,-2.823529,0,-0.007843,-0.007843,-0.007843,-1.960784,-1.960784,-1.960784,3
0,-2.823529,0,-0.007843,-0.007843,-0.007843,-1.960784,-1.960784,-1.960784,3
0,-2.823529,0,-0.007843,-0.007843,-0.007843,-1.960784,-1.960784,-1.960784,3
-2.823529,-2.823529,-2.823529,-0.007843,-0.007843,-0.007843,-1.960784,-1.960784,-1.960784,3
-2.823529,-2.823529,-2.823529,-0.007843,-0.007843,-0.007843,-1.960784,-1.960784,-1.960784,3
0,-2.823529,-2.823529,-0.007843,-0.007843,-0.007843,-1.960784,-1.960784,-1.960784,3
0,-2.823529,-2.823529,-0.007843,-0.007843,-0.007843,-1.960784,-1.960784,-1.960784,3
-2.823529,-2.823529,-2.823529,-0.007843,-0.007843,-0.007843,-1.960784,-1.960784,-1.960784,3
-2.823529,-2.823529,-2.823529,-0.007843,-0.007843,-0.007843,-1.960784,-1.960784,-1.960784,3
-2.823529,-2.823529,-2.823529,-0.007843,-0.007843,-0.007843,-1.960784,-1.960784,-1.960784,3
-2.823529,-2.823529,-2.823529,-0.007843,-0.007843,-0.007843,-1.960784,-1.960784,-1.960784,3
-2.823529,-2.823529,-2.823529,-0.007843,-0.007843,-0.007843,-1.960784,-1.960784,-1.960784,3
-2.823529,-2.823529,-2.823529,-0.007843,-0.007843,-0.007843,-1.960784,-1.960784,-1.960784,3
-2.823529,-2.823529,-2.823529,-0.007843,-0.007843,-0.007843,-1.960784,-1.960784,-1.960784,3
-2.823529,-2.823529,-2.823529,-0.007843,-0.007843,-0.007843,-1.960784,-1.960784,-1.960784,3
-2.823529,0,-2.823529,-0.007843,-0.007843,-0.007843,-1.960784,-1.960784,-1.960784,3
-2.823529,0,-2.823529,-0.007843,-0.007843,-0.007843,-1.960784,-1.960784,-1.960784,3
-2.823529,0,-2.823529,-0.007843,-0.007843,-0.007843,-1.960784,-1.960784,-1.960784,3
-2.823529,-2.823529,-2.823529,-0.007843,-0.007843,-0.007843,-1.960784,-1.960784,-1.960784,3
-2.823529,-2.823529,-2.823529,-0.007843,-0.007843,-0.007843,-1.960784,-1.960784,-1.960784,3
-2.823529,-2.823529,-2.823529,-0.007843,-0.007843,-0.007843,-1.960784,-1.960784,-1.960784,3
-2.823529,-2.823529,-2.823529,-0.007843,-0.007843,-0.007843,-1.960784,-1.960784,-1.960784,3
-2.823529,-2.823529,-2.823529,-0.007843,-0.007843,-0.007843,-1.960784,-1.960784,-1.960784,3
-2.823529,-2.823529,-2.823529,-0.007843,-0.007843,-0.007843,-1.960784,-1.960784,-1.960784,3
-2.823529,-2.823529,-2.823529,-0.007843,-0.007843,-0.007843,-1.960784,-1.960784,-1.960784,3
-2.823529,-2.823529,-2.823529,-0.007843,-0.007843,-0.007843,-1.960784,-1.960784,-1.960784,3
-2.823529,-2.823529,-2.823529,-0.007843,-0.007843,-0.007843,-1.960784,-1.960784,-1.960784,3
-2.823529,-2.823529,-2.823529,-0.007843,-0.007843,-0.007843,-1.960784,-1.960784,-1.960784,3
-2.823529,-2.823529,-2.823529,-0.007843,-0.007843,-0.007843,-1.960784,-1.960784,-1.960784,3
-2.823529,-2.823529,-2.823529,-0.007843,-0.007843,-0.007843,-1.960784,-1.960784,-1.960784,3
-2.823529,-2.823529,-2.823529,-0.007843,-0.007843,-0.007843,-1.960784,-1.960784,-1.960784,3
-2.823529,-2.823529,-2.823529,-0.007843,-0.007843,-0.007843,-1.960784,-1.960784,-1.960784,3
-2.823529,-2.823529,-2.823529,-0.007843,-0.007843,-0.007843,-1.960784,-1.960784,-1.960784,3
-2.823529,-2.823529,-2.823529,-0.007843,-0.007843,-0.007843,-1.960784,-1.960784,-1.960784,3
-2.823529,-2.823529,-2.823529,-0.007843,-0.007843,-0.007843,-1.960784,-1.960784,-1.960784,3
-2.823529,-2.823529,-2.823529,-0.007843,-0.007843,-0.007843,-1.960784,-1.960784,-1.960784,3
-2.823529,-2.823529,-2.823529,-0.007843,-0.007843,-0.007843,-1.960784,-1.960784,-1.960784,3
-2.823529,-2.823529,-2.823529,-0.007843,-0.007843,-0.007843,-1.960784,-1.960784,-1.960784,3
-2.823529,-2.823529,-2.823529,-0.007843,-0.007843,-0.007843,-1.960784,-1.960784,-1.960784,3
-2.823529,-2.823529,-2.823529,-0.007843,-0.007843,-0.007843,-1.960784,-1.960784,-1.960784,3
-2.823529,-2.823529,-2.823529,-0.007843,-0.007843,-0.007843,-1.960784,-1.960784,-1.960784,3
-2.823529,-2.823529,-2.823529,-0.007843,-0.007843,-0.007843,-1.960784,-1.960784,-1.960784,3
-2.823529,-2.823529,-2.823529,-0.007843,-0.007843,-0.007843,-1.960784,-1.960784,-1.960784,3
-2.823529,-2.823529,-2.823529,-0.007843,-0.007843,-0.007843,-1.960784,-1.960784,-1.960784,3
-2.823529,-2.823529,-2.823529,-0.007843,-0.007843,-0.007843,-1.960784,-1.960784,-1.960784,3
-2.823529,-2.823529,-2.823529,-0.007843,-0.007843,-0.007843,-1.960784,-1.960784,-1.960784,3
-2.823529,-2.823529,-2.823529,-0.007843,-0.007843,-0.007843,-1.960784,-1.960784,-1.960784,3
-2.823529,-2.823529,-2.823529,-0.007843,-0.007843,-0.007843,-1.960784,-1.960784,-1.960784,3
-2.823529,-2.823529,-2.823529,-0.007843,-0.007843,-0.007843,-1.960784,-1.960784,-1.960784,3
-2.823529,-2.823529,-2.823529,-0.007843,-0.007843,-0.007843,-1.960784,-1.960784,-1.960784,3
-2.823529,-2.823529,-2.823529,-0.007843,-0.007843,-0.007843,-1.960784,-1.960784,-1.960784,3
-2.823529,-2.823529,-2.823529,-0.007843,-0.007843,-0.007843,-1.960784,-1.960784,-1.960784,3
-2.823529,-2.823529,-2.823529,-0.007843,-0.007843,-0.007843,-1.960784,-1.960784,-1.960784,3
-2.823529,-2.823529,-2.823529,-0.007843,-0.007843,-0.007843,-1.960784,-1.960784,-1.960784,3
-2.823529,-2.823529,-2.823529,-0.007843,-0.007843,-0.007843,-1.960784,-1.960784,-1.960784,3
-2.823529,-2.823529,-2.823529,-0.007843,-0.007843,-0.007843,-1.960784,-1.960784,-1.960784,3
-2.823529,-2.823529,-2.823529,-0.007843,-0.007843,-0.007843,-1.960784,-1.960784,-1.960784,3
-2.823529,-2.823529,-2.823529,-0.007843,-0.007843,-0.007843,-1.960784,-1.960784,-1.960784,3
-2.823529,-2.823529,-2.823529,-0.007843,-0.007843,-0.007843,-1.960784,-1.960784,-1.960784,3
-2.823529,-2.823529,-2.823529,-0.007843,-0.007843,-0.007843,-1.960784,-1.960784,-1.960784,3
-2.823529,-2.823529,-2.823529,-0.007843,-0.007843,-0.007843,-1.960784,-1.960784,-1.960784,3
-2.823529,-2.823529,-2.823529,-0.007843,-0.007843,-0.007843,-1.960784,-1.960784,-1.960784,3
-2.823529,-2.823529,0,-0.007843,-0.007843,-0.007843,-1.960784,-1.960784,-1.960784,3
-2.823529,-2.823529,-2.823529,-0.007843,-0.007843,-0.007843,-1.960784,-1.960784,-1.960784,3
-2.823529,-2.823529,-2.823529,-0.007843,-0.007843,-0.007843,-1.960784,-1.960784,-1.960784,3
-2.823529,-2.823529,-2.823529,-0.007843,-0.007843,-0.007843,-1.960784,-1.960784,-1.960784,3
-2.823529,-2.823529,-2.823529,-0.007843,-0.007843,-0.007843,-1.960784,-1.960784,-1.960784,3
-2.823529,-2.823529,-2.823529,-0.007843,-0.007843,-0.007843,-1.960784,-1.960784,-1.960784,3
0,-2.823529,-2.823529,-0.007843,-0.007843,-0.007843,-1.960784,-1.960784,-1.960784,3
-2.823529,-2.823529,-2.823529,-0.007843,-0.007843,-0.007843,-1.960784,-1.960784,-1.960784,3
-2.823529,-2.823529,-2.823529,-0.007843,-0.007843,-0.007843,-1.960784,-1.960784,-1.960784,3
0,-2.823529,0,-0.007843,-0.007843,-0.007843,-1.960784,-1.960784,-1.960784,3
0,-2.823529,0,-0.007843,-0.007843,-0.023529,-1.960784,-1.960784,-1.960784,3
0,-2.823529,0,-0.007843,-0.007843,-0.007843,-1.960784,-1.960784,-1.960784,3
0,-2.823529,-2.823529,-0.007843,-0.007843,-0.007843,-1.960784,-1.960784,-1.960784,3
0,-2.823529,-2.823529,-0.007843,-0.007843,-0.007843,-1.960784,-1.960784,-1.960784,3
0,-2.823529,-2.823529,-0.007843,-0.007843,-0.007843,-1.960784,-1.960784,-1.960784,3
0,-2.823529,-2.823529,-0.007843,-0.007843,-0.007843,-1.960784,-1.960784,-1.960784,3
0,-2.823529,-2.823529,-0.007843,-0.007843,-0.007843,-1.960784,-1.960784,-1.960784,3
0,-2.823529,-2.823529,-0.007843,-0.007843,-0.007843,-1.960784,-1.960784,-1.960784,3
0,-2.823529,-2.823529,-0.007843,-0.007843,-0.007843,-1.960784,-1.960784,-1.960784,3
0,-2.823529,-2.823529,-0.007843,-0.007843,-0.007843,-1.960784,-1.960784,-1.960784,3
0,-2.823529,-2.823529,-0.007843,-0.007843,-0.007843,-1.960784,-1.960784,-1.960784,3
0,-2.823529,-2.823529,-0.007843,-0.007843,-0.007843,-1.960784,-1.960784,-1.960784,3
0,-2.823529,-2.823529,-0.007843,-0.007843,-0.007843,-1.960784,-1.960784,-1.960784,3
0,-2.823529,-2.823529,-0.007843,-0.007843,-0.007843,-1.960784,-1.960784,-1.960784,3
0,-2.823529,-2.823529,-0.007843,-0.007843,-0.007843,-1.960784,-1.960784,-1.960784,3
0,-2.823529,-2.823529,-0.007843,-0.007843,-0.007843,-1.960784,-1.960784,-1.960784,3
0,-2.823529,-2.823529,-0.007843,-0.007843,-0.007843,-1.960784,-1.960784,-1.960784,3
0,-2.823529,-2.823529,-0.007843,-0.007843,-0.007843,-1.960784,-1.960784,-1.960784,3
0,-2.823529,0,-0.007843,-0.007843,0.007843,-1.960784,-1.960784,-1.960784,3
0,-2.823529,-2.823529,-0.007843,-0.007843,-0.007843,-1.960784,-1.960784,-1.960784,3
0,-2.823529,-2.823529,-0.007843,-0.007843,-0.007843,-1.960784,-1.960784,-1.960784,3
0,-2.823529,-2.823529,-0.007843,-0.007843,-0.007843,-1.960784,-1.960784,-1.960784,3
0,-2.823529,-2.823529,-0.007843,-0.007843,-0.007843,-1.960784,-1.960784,-1.960784,3
0,-2.823529,-2.823529,-0.007843,-0.007843,-0.007843,-1.960784,-1.960784,-1.960784,3
0,-2.823529,-2.823529,-0.007843,-0.007843,-0.007843,-1.960784,-1.960784,-1.960784,3
0,-2.823529,-2.823529,-0.007843,-0.007843,-0.007843,-1.960784,-1.960784,-1.960784,3
0,-2.823529,-2.823529,-0.007843,-0.007843,-0.007843,-1.960784,-1.960784,-1.960784,3
0,-2.823529,-2.823529,-0.007843,-0.007843,-0.007843,-1.960784,-1.960784,-1.960784,3
0,-2.823529,-2.823529,-0.007843,-0.007843,-0.007843,-1.960784,-1.960784,-1.960784,3
0,-2.823529,-2.823529,-0.007843,-0.007843,-0.007843,-1.960784,-1.960784,-1.960784,3
0,-2.823529,-2.823529,-0.007843,-0.007843,-0.007843,-1.960784,-1.960784,-1.960784,3
0,-2.823529,-2.823529,-0.007843,-0.007843,-0.007843,-1.960784,-1.960784,-1.960784,3
0,-2.823529,-2.823529,-0.007843,-0.007843,-0.023529,-1.960784,-1.960784,-1.960784,3
0,-2.823529,-2.823529,-0.007843,-0.007843,-0.007843,-1.960784,-1.960784,-1.960784,3
0,-2.823529,-2.823529,-0.007843,-0.007843,-0.007843,-1.960784,-1.960784,-1.960784,3
0,-2.823529,-2.823529,-0.007843,-0.007843,-0.007843,-1.960784,-1.960784,-1.960784,3
0,-2.823529,-2.823529,-0.007843,-0.007843,-0.007843,-1.960784,-1.960784,-1.960784,3
0,-2.823529,-2.823529,-0.007843,-0.007843,-0.007843,-1.960784,-1.960784,-1.960784,3
0,-2.823529,-2.823529,-0.007843,-0.007843,-0.007843,-1.960784,-1.960784,-1.960784,3
0,-2.823529,-2.823529,-0.007843,-0.007843,-0.007843,-1.960784,-1.960784,-1.960784,3
0,-2.823529,-2.823529,-0.007843,-0.007843,-0.007843,-1.960784,-1.960784,-1.960784,3
0,-2.823529,-2.823529,-0.007843,-0.007843,-0.007843,-1.960784,-1.960784,-1.960784,3
0,-2.823529,-2.823529,-0.007843,-0.007843,-0.007843,-1.960784,-1.960784,-1.960784,3
0,-2.823529,-2.823529,-0.007843,-0.007843,-0.007843,-1.960784,-1.960784,-1.960784,3
0,-2.823529,-2.823529,-0.007843,-0.007843,-0.007843,-1.960784,-1.960784,-1.960784,3
0,-2.823529,-2.823529,-0.007843,-0.007843,-0.007843,-1.960784,-1.960784,-1.960784,3
0,-2.823529,-2.823529,-0.007843,-0.007843,-0.007843,-1.960784,-1.960784,-1.960784,3
0,-2.823529,-2.823529,-0.007843,-0.007843,-0.007843,-1.960784,-1.960784,-1.960784,3
0,-2.823529,-2.823529,-0.007843,-0.007843,-0.007843,-1.960784,-1.960784,-1.960784,3
0,-2.823529,-2.823529,-0.007843,-0.007843,-0.007843,-1.960784,-1.960784,-1.960784,3
0,-2.823529,-2.823529,-0.007843,-0.007843,-0.007843,-1.960784,-1.960784,-1.960784,3
0,-2.823529,-2.823529,-0.007843,-0.007843,-0.007843,-1.960784,-1.960784,-1.960784,3
0,-2.823529,-2.823529,-0.007843,-0.007843,-0.007843,-1.960784,-1.960784,-1.960784,3
0,-2.823529,-2.823529,-0.007843,-0.007843,-0.007843,-1.960784,-1.960784,-1.960784,3
0,-2.823529,-2.823529,-0.007843,-0.007843,-0.007843,-1.960784,-1.960784,-1.960784,3
0,-2.823529,-2.823529,-0.007843,-0.007843,-0.007843,-1.960784,-1.960784,-1.960784,3
0,-2.823529,-2.823529,-0.007843,-0.007843,-0.007843,-1.960784,-1.960784,-1.960784,3
0,-2.823529,-2.823529,-0.007843,-0.007843,-0.007843,-1.960784,-1.960784,-1.960784,3
0,-2.823529,-2.823529,-0.007843,-0.007843,-0.007843,-1.960784,-1.960784,-1.960784,3
0,-2.823529,-2.823529,-0.007843,-0.007843,-0.007843,-1.960784,-1.960784,-1.960784,3
0,-2.823529,-2.823529,-0.007843,-0.007843,-0.007843,-1.960784,-1.960784,-1.960784,3
0,-2.823529,-2.823529,-0.007843,-0.007843,-0.007843,-1.960784,-1.960784,-1.960784,3
0,-2.823529,-2.823529,-0.007843,-0.007843,-0.023529,-1.960784,-1.960784,-1.960784,3
0,-2.823529,-2.823529,-0.007843,-0.007843,-0.007843,-1.960784,-1.960784,-1.960784,3
0,-2.823529,-2.823529,-0.007843,-0.007843,0.007843,-1.960784,-1.960784,-1.960784,3
0,-2.823529,0,-0.007843,-0.007843,-0.007843,-1.960784,-1.960784,-1.960784,3
0,-2.823529,0,-0.007843,-0.007843,-0.007843,-1.960784,-1.960784,-1.960784,3
0,-2.823529,0,-0.007843,-0.007843,-0.007843,-1.960784,-1.960784,-1.960784,3
0,-2.823529,-2.823529,-0.007843,-0.007843,-0.007843,-1.960784,-1.960784,-1.960784,3
0,-2.823529,-2.823529,-0.007843,-0.007843,-0.007843,-1.960784,-1.960784,-1.960784,3
0,-2.823529,0,-0.007843,-0.007843,-0.007843,-1.960784,-1.960784,-1.960784,3
0,-2.823529,0,-0.007843,-0.007843,-0.007843,-1.960784,-1.960784,-1.960784,3
0,-2.823529,0,-0.007843,-0.007843,-0.007843,-1.960784,-1.960784,-1.960784,3
0,-2.823529,0,-0.007843,-0.007843,-0.007843,-1.960784,-1.960784,-1.960784,3
0,-2.823529,0,-0.007843,-0.007843,-0.007843,-1.960784,-1.960784,-1.960784,3
0,-2.823529,0,-0.007843,-0.007843,-0.007843,-1.960784,-1.960784,-1.960784,3
0,-2.823529,0,-0.007843,-0.007843,-0.007843,-1.960784,-1.960784,-1.960784,3
0,-2.823529,0,-0.007843,-0.007843,-0.007843,-1.960784,-1.960784,-1.960784,3
0,-2.823529,0,-0.007843,-0.007843,-0.007843,-1.960784,-1.960784,-1.960784,3
0,-2.823529,0,-0.007843,-0.007843,-0.007843,-1.960784,-1.960784,-1.960784,3
0,-2.823529,0,-0.007843,-0.007843,-0.007843,-1.960784,-1.960784,-1.960784,3
0,-2.823529,0,-0.007843,-0.007843,-0.007843,-1.960784,-1.960784,-1.960784,3
0,-2.823529,0,-0.007843,-0.007843,-0.007843,-1.960784,-1.960784,-1.960784,3
0,-2.823529,0,-0.007843,-0.007843,-0.007843,-1.960784,-1.960784,-1.960784,3
0,-2.823529,0,-0.007843,-0.007843,-0.007843,-1.960784,-1.960784,-1.960784,3
0,-2.823529,0,-0.007843,-0.007843,-0.007843,-1.960784,-1.960784,-1.960784,3
0,-2.823529,0,-0.007843,-0.007843,-0.007843,-1.960784,-1.960784,-1.960784,3
0,-2.823529,0,-0.007843,-0.007843,-0.007843,-1.960784,-1.960784,-1.960784,3
0,-2.823529,0,-0.007843,-0.007843,-0.007843,-1.960784,-1.960784,-1.960784,3
0,-2.823529,0,-0.007843,-0.007843,-0.007843,-1.960784,-1.960784,-1.960784,3
0,-2.823529,0,-0.007843,-0.007843,-0.007843,-1.960784,-1.960784,-1.960784,3
0,-2.823529,0,-0.007843,-0.007843,-0.007843,-1.960784,-1.960784,-1.960784,3
0,-2.823529,0,-0.007843,-0.007843,-0.007843,-1.960784,-1.960784,-1.960784,3
0,-2.823529,-2.823529,-0.007843,-0.007843,-0.007843,-1.960784,-1.960784,-1.960784,3
0,-2.823529,-2.823529,-0.007843,-0.007843,-0.007843,-1.960784,-1.960784,-1.960784,3
0,-2.823529,-2.823529,-0.007843,-0.007843,-0.007843,-1.960784,-1.960784,-1.960784,3
0,-2.823529,-2.823529,-0.007843,-0.007843,-0.007843,-1.960784,-1.960784,-1.960784,3
0,-2.823529,-2.823529,-0.007843,-0.007843,-0.007843,-1.960784,-1.960784,-1.960784,3
0,-2.823529,-2.823529,-0.007843,-0.007843,-0.007843,-1.960784,-1.960784,-1.960784,3
0,-2.823529,-2.823529,-0.007843,-0.007843,-0.007843,-1.960784,-1.960784,-1.960784,3
0,-2.823529,-2.823529,-0.007843,-0.007843,-0.007843,-1.960784,-1.960784,-1.960784,3
0,-2.823529,-2.823529,-0.007843,-0.007843,-0.007843,-1.960784,-1.960784,-1.960784,3
0,-2.823529,-2.823529,-0.007843,-0.007843,-0.007843,-1.960784,-1.960784,-1.960784,3
0,-2.823529,-2.823529,-0.007843,-0.007843,-0.007843,-1.960784,-1.960784,-1.960784,3
0,-2.823529,-2.823529,-0.007843,-0.007843,-0.007843,-1.960784,-1.960784,-1.960784,3
0,-2.823529,-2.823529,-0.007843,-0.007843,-0.007843,-1.960784,-1.960784,-1.960784,3
0,-2.823529,-2.823529,-0.007843,-0.007843,-0.007843,-1.960784,-1.960784,-1.960784,3
0,-2.823529,-2.823529,-0.007843,-0.007843,-0.007843,-1.960784,-1.960784,-1.960784,3
0,-2.823529,-2.823529,-0.007843,-0.007843,-0.007843,-1.960784,-1.960784,-1.960784,3
0,-2.823529,-2.823529,-0.007843,-0.007843,-0.007843,-1.960784,-1.960784,-1.960784,3
0,-2.823529,-2.823529,-0.007843,-0.007843,-0.007843,-1.960784,-1.960784,-1.960784,3
0,-2.823529,-2.823529,-0.007843,-0.007843,-0.007843,-1.960784,-1.960784,-1.960784,3
0,-2.823529,-2.823529,-0.007843,-0.007843,-0.007843,-1.960784,-1.960784,-1.960784,3
0,-2.823529,-2.823529,-0.007843,-0.007843,-0.007843,-1.960784,-1.960784,-1.960784,3
0,-2.823529,-2.823529,-0.007843,-0.007843,-0.007843,-1.960784,-1.960784,-1.960784,3
0,-2.823529,-2.823529,-0.007843,-0.007843,-0.007843,-1.960784,-1.960784,-1.960784,3
0,-2.823529,-2.823529,-0.007843,-0.007843,-0.007843,-1.960784,-1.960784,-1.960784,3
0,-2.823529,-2.823529,-0.007843,-0.007843,-0.007843,-1.960784,-1.960784,-1.960784,3
0,-2.823529,-2.823529,-0.007843,-0.007843,-0.007843,-1.960784,-1.960784,-1.960784,3
0,-2.823529,-2.823529,-0.007843,-0.007843,0.007843,-1.960784,-1.960784,-1.960784,3
0,-2.823529,-2.823529,-0.007843,-0.007843,-0.007843,-1.960784,-1.960784,-1.960784,3
0,-2.823529,-2.823529,-0.007843,-0.007843,-0.007843,-1.960784,-1.960784,-1.960784,3
0,-2.823529,-2.823529,-0.007843,-0.007843,-0.007843,-1.960784,-1.960784,-1.960784,3
0,-2.823529,-2.823529,-0.007843,-0.007843,-0.007843,-1.960784,-1.960784,-1.960784,3
0,-2.823529,-2.823529,-0.007843,-0.007843,-0.007843,-1.960784,-1.960784,-1.960784,3
0,-2.823529,-2.823529,-0.007843,-0.007843,-0.007843,-1.960784,-1.960784,-1.960784,3
0,-2.823529,-2.823529,-0.007843,-0.007843,-0.007843,-1.960784,-1.960784,-1.960784,3
0,-2.823529,-2.823529,-0.007843,-0.007843,-0.007843,-1.960784,-1.960784,-1.960784,3
0,-2.823529,-2.823529,-0.007843,-0.007843,-0.007843,-1.960784,-1.960784,-1.960784,3
0,-2.823529,-2.823529,-0.007843,-0.007843,-0.007843,-1.960784,-1.960784,-1.960784,3
0,-2.823529,-2.823529,-0.007843,-0.007843,-0.007843,-1.960784,-1.960784,-1.960784,3
0,-2.823529,-2.823529,-0.007843,-0.007843,-0.007843,-1.960784,-1.960784,-1.960784,3
0,-2.823529,-2.823529,-0.007843,-0.007843,-0.007843,-1.960784,-1.960784,-1.960784,3
0,-2.823529,-2.823529,-0.007843,-0.007843,-0.007843,-1.960784,-1.960784,-1.960784,3
0,-2.823529,-2.823529,-0.007843,-0.007843,-0.007843,-1.960784,-1.960784,-1.960784,3
0,-2.823529,-2.823529,-0.007843,-0.007843,-0.007843,-1.960784,-1.960784,-1.960784,3
0,-2.823529,-2.823529,-0.007843,-0.007843,-0.007843,-1.960784,-1.960784,-1.960784,3
0,-2.823529,-2.823529,-0.007843,-0.007843,-0.007843,-1.960784,-1.960784,-1.960784,3
0,-2.823529,-2.823529,-0.007843,-0.007843,-0.007843,-1.960784,-1.960784,-1.960784,3
0,-2.823529,-2.823529,-0.007843,-0.007843,-0.007843,-1.960784,-1.960784,-1.960784,3
0,-2.823529,-2.823529,-0.007843,-0.007843,-0.007843,-1.960784,-1.960784,-1.960784,3
0,-2.823529,-2.823529,-0.007843,-0.007843,-0.007843,-1.960784,-1.960784,-1.960784,3
0,0,-2.823529,-0.007843,-0.007843,-0.007843,-1.960784,-1.960784,-1.960784,3
0,0,-2.823529,-0.007843,-0.007843,-0.007843,-1.960784,-1.960784,-1.960784,3
0,0,-2.823529,-0.007843,-0.007843,-0.007843,-1.960784,-1.960784,-1.960784,3
0,0,-2.823529,-0.007843,-0.007843,-0.007843,-1.960784,-1.960784,-1.960784,3
0,-2.823529,-2.823529,-0.007843,-0.007843,-0.007843,-1.960784,-1.960784,-1.960784,3
0,-2.823529,-2.823529,-0.007843,-0.007843,-0.007843,-1.960784,-1.960784,-1.960784,3
0,-2.823529,-2.823529,-0.007843,-0.007843,-0.007843,-1.960784,-1.960784,-1.960784,3
0,0,-2.823529,-0.007843,-0.007843,-0.007843,-1.960784,-1.960784,-1.960784,3
0,0,-2.823529,-0.007843,-0.007843,-0.007843,-1.960784,-1.960784,-1.960784,3
0,-2.823529,-2.823529,-0.007843,-0.007843,-0.007843,-1.960784,-1.960784,-1.960784,3
0,0,-2.823529,-0.007843,-0.007843,-0.007843,-1.960784,-1.960784,-1.960784,3
0,0,-2.823529,-0.007843,-0.007843,-0.007843,-1.960784,-1.960784,-1.960784,3
0,-2.823529,-2.823529,-0.007843,-0.007843,-0.007843,-1.960784,-1.960784,-1.960784,3
0,0,-2.823529,-0.007843,-0.007843,-0.007843,-1.960784,-1.960784,-1.960784,3
0,-2.823529,-2.823529,-0.007843,-0.007843,-0.007843,-1.960784,-1.960784,-1.960784,3
0,-2.823529,-2.823529,-0.007843,-0.007843,-0.007843,-1.960784,-1.960784,-1.960784,3
0,-2.823529,-2.823529,-0.007843,-0.007843,-0.007843,-1.960784,-1.960784,-1.960784,3
0,0,-2.823529,-0.007843,-0.007843,-0.007843,-1.960784,-1.960784,-1.960784,3
0,0,-2.823529,-0.007843,-0.007843,-0.007843,-1.960784,-1.960784,-1.960784,3
0,0,0,-0.007843,-0.007843,-0.007843,-1.960784,-1.960784,-1.960784,3
0,0,0,-0.007843,-0.007843,-0.007843,-1.960784,-1.960784,-1.960784,3
0,0,0,-0.007843,-0.007843,-0.007843,-1.960784,-1.960784,-1.960784,3
0,0,0,-0.007843,-0.007843,-0.007843,-1.960784,-1.960784,-1.960784,3
0,0,0,-0.007843,-0.007843,-0.007843,-1.960784,-1.960784,-1.960784,3
0,0,-2.823529,-0.007843,-0.007843,-0.023529,-1.960784,-1.960784,-1.960784,3
0,0,-2.823529,-0.007843,-0.007843,-0.007843,-1.960784,-1.960784,-1.960784,3
0,0,-2.823529,-0.007843,-0.007843,-0.007843,-1.960784,-1.960784,-1.960784,3
0,0,-2.823529,-0.007843,-0.007843,-0.007843,-1.960784,-1.960784,-1.960784,3
0,0,0,-0.007843,-0.007843,-0.007843,-1.960784,-1.960784,-1.960784,3
0,0,0,-0.007843,-0.007843,-0.007843,-1.960784,-1.960784,-1.960784,3
0,0,0,-0.007843,-0.007843,-0.007843,-1.960784,-1.960784,-1.960784,3
0,0,0,-0.007843,-0.007843,-0.007843,-1.960784,-1.960784,-1.960784,3
0,0,0,-0.007843,-0.007843,-0.007843,-1.960784,-1.960784,-1.960784,3
0,0,0,-0.007843,-0.007843,-0.007843,-1.960784,-1.960784,-1.960784,3
0,0,0,-0.007843,-0.007843,-0.007843,-1.960784,-1.960784,-1.960784,3
0,0,0,-0.007843,-0.007843,-0.007843,-1.960784,-1.960784,-1.960784,3
0,0,0,-0.007843,-0.007843,-0.007843,-1.960784,-1.960784,-1.960784,3
0,0,0,-0.007843,-0.007843,-0.007843,-1.960784,-1.960784,-1.960784,3
0,0,0,-0.007843,-0.007843,-0.007843,-1.960784,-1.960784,-1.960784,3
0,0,0,-0.007843,-0.007843,-0.007843,-1.960784,-1.960784,-1.960784,3
0,0,0,-0.007843,-0.007843,-0.007843,-1.960784,-1.960784,-1.960784,3
0,0,0,-0.007843,-0.007843,-0.007843,-1.960784,-1.960784,-1.960784,3
0,0,0,-0.007843,-0.007843,-0.007843,-1.960784,-1.960784,-1.960784,3
0,0,0,-0.007843,-0.007843,-0.007843,-1.960784,-1.960784,-1.960784,3
0,0,0,-0.007843,-0.007843,-0.007843,-1.960784,-1.960784,-1.960784,3
0,0,0,-0.007843,-0.007843,-0.007843,-1.960784,-1.960784,-1.960784,3
0,0,0,-0.007843,-0.007843,-0.007843,-1.960784,-1.960784,-1.960784,3
0,0,0,-0.007843,-0.007843,-0.007843,-1.960784,-1.960784,-1.960784,3
0,0,0,-0.007843,-0.007843,-0.007843,-1.960784,-1.960784,-1.960784,3
0,0,0,-0.007843,-0.007843,-0.007843,-1.960784,-1.960784,-1.960784,3
0,0,0,-0.007843,-0.007843,-0.007843,-1.960784,-1.960784,-1.960784,3
0,0,0,-0.007843,-0.007843,-0.007843,-1.960784,-1.960784,-1.960784,3
0,0,0,-0.007843,-0.007843,-0.007843,-1.960784,-1.960784,-1.960784,3
0,0,0,-0.007843,-0.007843,-0.007843,-1.960784,-1.960784,-1.960784,3
0,0,0,-0.007843,-0.007843,-0.007843,-1.960784,-1.960784,-1.960784,3
0,0,0,-0.007843,-0.007843,-0.007843,-1.960784,-1.960784,-1.960784,3
0,0,0,-0.007843,-0.007843,-0.007843,-1.960784,-1.960784,-1.960784,3
0,0,0,-0.007843,-0.007843,-0.007843,-1.960784,-1.960784,-1.960784,3
0,0,0,-0.007843,-0.007843,-0.023529,-1.960784,-1.960784,-1.960784,3
0,0,0,-0.007843,-0.007843,-0.007843,-1.960784,-1.960784,-1.960784,3
0,0,0,-0.007843,-0.007843,-0.007843,-1.960784,-1.960784,-1.960784,3
0,0,0,-0.007843,-0.007843,-0.007843,-1.960784,-1.960784,-1.960784,3
0,0,0,-0.007843,-0.007843,-0.007843,-1.960784,-1.960784,-1.960784,3
0,-2.823529,0,-0.007843,-0.007843,-0.007843,-1.960784,-1.960784,-1.960784,3
0,-2.823529,0,-0.007843,-0.007843,-0.007843,-1.960784,-1.960784,-1.960784,3
0,-2.823529,0,-0.007843,-0.007843,-0.007843,-1.960784,-1.960784,-1.960784,3
0,-2.823529,0,-0.007843,-0.007843,-0.007843,-1.960784,-1.960784,-1.960784,3
0,-2.823529,0,-0.007843,-0.007843,-0.007843,-1.960784,-1.960784,-1.960784,3
0,-2.823529,0,-0.007843,-0.007843,-0.007843,-1.960784,-1.960784,-1.960784,3
0,-2.823529,0,-0.007843,-0.007843,-0.007843,-1.960784,-1.960784,-1.960784,3
0,-2.823529,0,-0.007843,-0.007843,-0.007843,-1.960784,-1.960784,-1.960784,3
0,-2.823529,0,-0.007843,-0.007843,-0.007843,-1.960784,-1.960784,-1.960784,3
0,-2.823529,0,-0.007843,-0.007843,-0.007843,-1.960784,-1.960784,-1.960784,3
0,-2.823529,0,-0.007843,-0.007843,-0.007843,-1.960784,-1.960784,-1.960784,3
0,-2.823529,0,-0.007843,-0.007843,-0.007843,-1.960784,-1.960784,-1.960784,3
0,-2.823529,0,-0.007843,-0.007843,-0.007843,-1.960784,-1.960784,-1.960784,3
0,-2.823529,0,-0.023529,-0.023529,-0.007843,-1.960784,-1.960784,-1.960784,3
0,-2.823529,0,-0.007843,-0.007843,-0.007843,-1.960784,-1.960784,-1.960784,3
0,-2.823529,0,-0.007843,-0.007843,-0.007843,-1.960784,-1.960784,-1.960784,3
0,-2.823529,0,-0.007843,-0.007843,-0.007843,-1.960784,-1.960784,-1.960784,3
0,-2.823529,0,-0.007843,-0.007843,-0.007843,-1.960784,-1.960784,-1.960784,3
0,-2.823529,0,-0.007843,-0.007843,-0.007843,-1.960784,-1.960784,-1.960784,3
0,-2.823529,0,-0.007843,-0.007843,-0.007843,-1.960784,-1.960784,-1.960784,3
0,-2.823529,0,-0.007843,-0.007843,-0.007843,-1.960784,-1.960784,-1.960784,3
0,-2.823529,0,-0.007843,-0.007843,-0.007843,-1.960784,-1.960784,-1.960784,3
0,-2.823529,0,-0.007843,-0.007843,-0.007843,-1.960784,-1.960784,-1.960784,3
0,-2.823529,0,-0.007843,-0.007843,-0.007843,-1.960784,-1.960784,-1.960784,3
0,-2.823529,0,-0.007843,-0.007843,-0.007843,-1.960784,-1.960784,-1.960784,3
0,-2.823529,0,-0.007843,-0.007843,-0.007843,-1.960784,-1.960784,-1.960784,3
0,-2.823529,0,-0.007843,-0.007843,-0.007843,-1.960784,-1.960784,-1.960784,3
0,-2.823529,0,-0.007843,-0.007843,-0.007843,-1.960784,-1.960784,-1.960784,3
0,-2.823529,0,-0.007843,-0.007843,-0.007843,-1.960784,-1.960784,-1.960784,3
0,-2.823529,0,-0.007843,-0.007843,-0.007843,-1.960784,-1.960784,-1.960784,3
0,-2.823529,0,-0.007843,-0.007843,-0.007843,-1.960784,-1.960784,-1.960784,3
0,-2.823529,0,-0.007843,-0.007843,-0.007843,-1.960784,-1.960784,-1.960784,3
0,-2.823529,0,-0.007843,-0.007843,-0.007843,-1.960784,-1.960784,-1.960784,3
0,-2.823529,0,-0.007843,-0.007843,-0.007843,-1.960784,-1.960784,-1.960784,3
0,-2.823529,0,-0.007843,-0.007843,-0.007843,-1.960784,-1.960784,-1.960784,3
0,-2.823529,0,-0.007843,-0.007843,-0.007843,-1.960784,-1.960784,-1.960784,3
0,-2.823529,0,-0.007843,-0.007843,-0.007843,-1.960784,-1.960784,-1.960784,3
0,-2.823529,0,-0.007843,-0.007843,-0.007843,-1.960784,-1.960784,-1.960784,3
0,-2.823529,0,-0.007843,-0.007843,-0.007843,-1.960784,-1.960784,-1.960784,3
0,-2.823529,0,-0.007843,-0.007843,-0.007843,-1.960784,-1.960784,-1.960784,3
0,-2.823529,0,-0.007843,-0.007843,-0.007843,-1.960784,-1.960784,-1.960784,3
0,-2.823529,0,-0.007843,-0.007843,-0.007843,-1.960784,-1.960784,-1.960784,3
0,-2.823529,0,-0.007843,-0.007843,-0.007843,-1.960784,-1.960784,-1.960784,3
0,-2.823529,0,-0.007843,-0.007843,-0.007843,-1.960784,-1.960784,-1.960784,3
0,-2.823529,0,-0.007843,-0.007843,-0.007843,-1.960784,-1.960784,-1.960784,3
0,-2.823529,0,-0.007843,-0.007843,-0.007843,-1.960784,-1.960784,-1.960784,3
0,-2.823529,0,-0.007843,-0.007843,-0.007843,-1.960784,-1.960784,-1.960784,3
0,-2.823529,0,-0.007843,-0.007843,-0.007843,-1.960784,-1.960784,-1.960784,3
0,-2.823529,0,-0.007843,-0.007843,-0.007843,-1.960784,-1.960784,-1.960784,3
0,-2.823529,0,-0.007843,-0.007843,-0.007843,-1.960784,-1.960784,-1.960784,3
0,-2.823529,0,-0.007843,-0.007843,-0.007843,-1.960784,-1.960784,-1.960784,3
0,-2.823529,0,-0.007843,-0.007843,-0.007843,-1.960784,-1.960784,-1.960784,3
0,-2.823529,0,-0.007843,-0.007843,-0.007843,-1.960784,-1.960784,-1.960784,3
0,-2.823529,0,-0.007843,-0.007843,-0.007843,-1.960784,-1.960784,-1.960784,3
0,-2.823529,0,-0.007843,-0.007843,-0.007843,-1.960784,-1.960784,-1.960784,3
0,-2.823529,0,-0.007843,-0.007843,-0.007843,-1.960784,-1.960784,-1.960784,3
0,-2.823529,0,-0.007843,-0.007843,-0.007843,-1.960784,-1.960784,-1.960784,3
0,-2.823529,0,-0.007843,-0.007843,-0.007843,-1.960784,-1.960784,-1.960784,3
0,-2.823529,0,-0.007843,-0.007843,-0.007843,-1.960784,-1.960784,-1.960784,3
0,-2.823529,0,-0.007843,-0.007843,-0.007843,-1.960784,-1.960784,-1.960784,3
0,-2.823529,0,-0.007843,-0.007843,-0.007843,-1.960784,-1.960784,-1.960784,3
0,-2.823529,0,-0.007843,-0.007843,-0.007843,-1.960784,-1.960784,-1.960784,3
0,-2.823529,0,-0.007843,-0.007843,-0.007843,-1.960784,-1.960784,-1.960784,3
0,-2.823529,0,-0.007843,-0.007843,-0.007843,-1.960784,-1.960784,-1.960784,3
0,-2.823529,0,-0.007843,-0.007843,-0.007843,-1.960784,-1.960784,-1.960784,3
0,-2.823529,0,-0.007843,-0.007843,-0.023529,-1.960784,-1.960784,-1.960784,3
0,-2.823529,0,-0.007843,-0.007843,-0.007843,-1.960784,-1.960784,-1.960784,3
0,-2.823529,0,-0.007843,-0.007843,-0.007843,-1.960784,-1.960784,-1.960784,3
0,-2.823529,0,-0.007843,-0.007843,-0.007843,-1.960784,-1.960784,-1.960784,3
0,-2.823529,0,-0.007843,-0.007843,-0.007843,-1.960784,-1.960784,-1.960784,3
0,-2.823529,0,-0.007843,-0.007843,-0.007843,-1.960784,-1.960784,-1.960784,3
0,-2.823529,0,-0.007843,-0.007843,-0.007843,-1.960784,-1.960784,-1.960784,3
0,-2.823529,0,-0.007843,-0.007843,-0.007843,-1.960784,-1.960784,-1.960784,3
0,-2.823529,0,-0.007843,-0.007843,-0.007843,-1.960784,-1.960784,-1.960784,3
0,-2.823529,0,-0.007843,-0.007843,-0.007843,-1.960784,-1.960784,-1.960784,3
0,-2.823529,0,-0.007843,-0.007843,-0.007843,-1.960784,-1.960784,-1.960784,3
0,-2.823529,0,-0.007843,-0.007843,-0.007843,-1.960784,-1.960784,-1.960784,3
0,-2.823529,0,-0.007843,-0.007843,-0.007843,-1.960784,-1.960784,-1.960784,3
0,-2.823529,0,-0.007843,-0.007843,-0.007843,-1.960784,-1.960784,-1.960784,3
0,-2.823529,0,-0.007843,-0.007843,-0.007843,-1.960784,-1.960784,-1.960784,3
0,-2.823529,0,-0.007843,-0.007843,-0.007843,-1.960784,-1.960784,-1.960784,3
0,-2.823529,0,-0.007843,-0.007843,-0.007843,-1.960784,-1.960784,-1.960784,3
0,-2.823529,0,-0.007843,-0.007843,-0.007843,-1.960784,-1.960784,-1.960784,3
0,-2.823529,0,-0.007843,-0.007843,-0.007843,-1.960784,-1.960784,-1.960784,3
0,-2.823529,0,-0.007843,-0.007843,-0.007843,-1.960784,-1.960784,-1.960784,3
0,-2.823529,0,-0.007843,-0.007843,-0.007843,-1.960784,-1.960784,-1.960784,3
0,-2.823529,0,-0.007843,-0.023529,-0.007843,-1.960784,-1.960784,-1.960784,3
0,-2.823529,0,-0.007843,-0.007843,-0.007843,-1.960784,-1.960784,-1.960784,3
0,-2.823529,0,-0.007843,-0.007843,-0.007843,-1.960784,-1.960784,-1.960784,3
0,-2.823529,0,-0.007843,-0.007843,-0.007843,-1.960784,-1.960784,-1.960784,3
0,-2.823529,0,-0.007843,-0.007843,-0.007843,-1.960784,-1.960784,-1.960784,3
0,-2.823529,0,-0.007843,-0.007843,-0.007843,-1.960784,-1.960784,-1.960784,3
0,-2.823529,0,-0.007843,-0.007843,-0.007843,-1.960784,-1.960784,-1.960784,3
0,-2.823529,0,-0.007843,-0.007843,-0.007843,-1.960784,-1.960784,-1.960784,3
0,-2.823529,0,-0.007843,-0.007843,-0.007843,-1.960784,-1.960784,-1.960784,3
0,-2.823529,0,-0.007843,-0.007843,-0.007843,-1.960784,-1.960784,-1.960784,3
0,-2.823529,0,-0.007843,-0.007843,-0.007843,-1.960784,-1.960784,-1.960784,3
0,-2.823529,0,-0.007843,-0.007843,-0.007843,-1.960784,-1.960784,-1.960784,3
0,-2.823529,0,-0.007843,-0.007843,-0.007843,-1.960784,-1.960784,-1.960784,3
0,-2.823529,0,-0.007843,-0.007843,-0.007843,-1.960784,-1.960784,-1.960784,3
0,-2.823529,0,-0.007843,-0.007843,-0.007843,-1.960784,-1.960784,-1.960784,3
0,-2.823529,0,-0.007843,-0.007843,-0.007843,-1.960784,-1.960784,-1.960784,3
0,-2.823529,0,-0.007843,-0.007843,-0.007843,-1.960784,-1.960784,-1.960784,3
0,-2.823529,0,-0.007843,-0.007843,-0.007843,-1.960784,-1.960784,-1.960784,3
0,-2.823529,0,-0.007843,-0.007843,-0.007843,-1.960784,-1.960784,-1.960784,3
0,-2.823529,0,-0.007843,-0.007843,-0.007843,-1.960784,-1.960784,-1.960784,3
0,-2.823529,0,-0.007843,-0.007843,0.007843,-1.960784,-1.960784,-1.960784,3
0,-2.823529,0,-0.007843,-0.007843,-0.007843,-1.960784,-1.960784,-1.960784,3
0,-2.823529,0,-0.007843,-0.007843,-0.007843,-1.960784,-1.960784,-1.960784,3
0,-2.823529,0,-0.007843,-0.007843,-0.007843,-1.960784,-1.960784,-1.960784,3
0,-2.823529,0,-0.007843,-0.007843,-0.007843,-1.960784,-1.960784,-1.960784,3
0,-2.823529,0,-0.007843,-0.007843,-0.007843,-1.960784,-1.960784,-1.960784,3
0,-2.823529,0,-0.007843,-0.007843,-0.007843,-1.960784,-1.960784,-1.960784,3
0,-2.823529,0,-0.007843,-0.007843,-0.007843,-1.960784,-1.960784,-1.960784,3
0,-2.823529,0,-0.007843,-0.007843,-0.007843,-1.960784,-1.960784,-1.960784,3
0,-2.823529,0,-0.007843,-0.007843,-0.007843,-1.960784,-1.960784,-1.960784,3
0,-2.823529,0,-0.007843,-0.007843,-0.007843,-1.960784,-1.960784,-1.960784,3
0,-2.823529,0,-0.007843,-0.007843,-0.007843,-1.960784,-1.960784,-1.960784,3
0,-2.823529,0,-0.007843,-0.007843,-0.007843,-1.960784,-1.960784,-1.960784,3
0,-2.823529,0,-0.007843,-0.007843,-0.007843,-1.960784,-1.960784,-1.960784,3
0,-2.823529,0,-0.007843,-0.007843,-0.007843,-1.960784,-1.960784,-1.960784,3
0,-2.823529,0,-0.007843,-0.007843,-0.007843,-1.960784,-1.960784,-1.960784,3
0,-2.823529,0,-0.007843,-0.007843,-0.007843,-1.960784,-1.960784,-1.960784,3
0,-2.823529,0,-0.007843,-0.007843,-0.007843,-1.960784,-1.960784,-1.960784,3
0,-2.823529,0,-0.007843,-0.007843,-0.023529,-1.960784,-1.960784,-1.960784,3
0,-2.823529,0,-0.007843,-0.007843,-0.007843,-1.960784,-1.960784,-1.960784,3
0,-2.823529,0,-0.007843,-0.007843,-0.007843,-1.960784,-1.960784,-1.960784,3
0,-2.823529,0,-0.007843,-0.007843,-0.007843,-1.960784,-1.960784,-1.960784,3
0,-2.823529,0,-0.007843,-0.007843,-0.007843,-1.960784,-1.960784,-1.960784,3
0,-2.823529,0,-0.007843,-0.007843,-0.007843,-1.960784,-1.960784,-1.960784,3
0,-2.823529,0,-0.007843,-0.007843,-0.007843,-1.960784,-1.960784,-1.960784,3
0,-2.823529,0,-0.007843,-0.007843,-0.007843,-1.960784,-1.960784,-1.960784,3
0,-2.823529,0,-0.007843,-0.007843,-0.007843,-1.960784,-1.960784,-1.960784,3
0,-2.823529,0,-0.007843,-0.007843,-0.007843,-1.960784,-1.960784,-1.960784,3
0,-2.823529,0,-0.007843,-0.007843,-0.007843,-1.960784,-1.960784,-1.960784,3
0,-2.823529,0,-0.007843,-0.007843,-0.007843,-1.960784,-1.960784,-1.960784,3
0,-2.823529,0,-0.007843,-0.007843,-0.007843,-1.960784,-1.960784,-1.960784,3
0,-2.823529,0,-0.007843,-0.007843,-0.007843,-1.960784,-1.960784,-1.960784,3
0,-2.823529,0,-0.007843,-0.007843,-0.007843,-1.960784,-1.960784,-1.960784,3
0,-2.823529,0,-0.007843,-0.007843,-0.007843,-1.960784,-1.960784,-1.960784,3
0,-2.823529,0,-0.007843,-0.007843,-0.007843,-1.960784,-1.960784,-1.960784,3
0,-2.823529,0,-0.007843,-0.007843,-0.007843,-1.960784,-1.960784,-1.960784,3
0,-2.823529,0,-0.007843,-0.007843,-0.023529,-1.960784,-1.960784,-1.960784,3
0,-2.823529,0,-0.007843,-0.007843,-0.007843,-1.960784,-1.960784,-1.960784,3
0,-2.823529,0,-0.007843,-0.007843,-0.007843,-1.960784,-1.960784,-1.960784,3
0,-2.823529,0,-0.007843,-0.007843,-0.007843,-1.960784,-1.960784,-1.960784,3
0,-2.823529,0,-0.007843,-0.007843,-0.007843,-1.960784,-1.960784,-1.960784,3
0,-2.823529,0,-0.007843,-0.007843,-0.007843,-1.960784,-1.960784,-1.960784,3
0,-2.823529,0,-0.007843,-0.007843,-0.007843,-1.960784,-1.960784,-1.960784,3
0,-2.823529,0,-0.007843,-0.007843,-0.007843,-1.960784,-1.960784,-1.960784,3
0,-2.823529,0,-0.007843,-0.007843,-0.007843,-1.960784,-1.960784,-1.960784,3
0,-2.823529,0,-0.007843,-0.007843,-0.007843,-1.960784,-1.960784,-1.960784,3
0,-2.823529,0,-0.007843,-0.007843,-0.007843,-1.960784,-1.960784,-1.960784,3
0,-2.823529,0,-0.007843,-0.007843,-0.007843,-1.960784,-1.960784,-1.960784,3
0,-2.823529,0,-0.007843,-0.007843,-0.007843,-1.960784,-1.960784,-1.960784,3
0,-2.823529,0,-0.007843,-0.007843,-0.007843,-1.960784,-1.960784,-1.960784,3
0,-2.823529,0,-0.007843,-0.007843,-0.007843,-1.960784,-1.960784,-1.960784,3
0,-2.823529,0,-0.007843,-0.007843,-0.007843,-1.960784,-1.960784,-1.960784,3
0,-2.823529,0,-0.007843,-0.007843,-0.007843,-1.960784,-1.960784,-1.960784,3
0,-2.823529,0,-0.007843,-0.007843,-0.007843,-1.960784,-1.960784,-1.960784,3
0,-2.823529,0,-0.007843,-0.007843,-0.007843,-1.960784,-1.960784,-1.960784,3
0,-2.823529,0,-0.007843,-0.007843,-0.007843,-1.960784,-1.960784,-1.960784,3
0,-2.823529,0,-0.007843,-0.007843,-0.007843,-1.960784,-1.960784,-1.960784,3
0,-2.823529,0,-0.007843,-0.007843,-0.007843,-1.960784,-1.960784,-1.960784,3
0,-2.823529,0,-0.007843,-0.007843,-0.007843,-1.960784,-1.960784,-1.960784,3
0,-2.823529,0,-0.007843,-0.007843,-0.007843,-1.960784,-1.960784,-1.960784,3
0,-2.823529,0,-0.007843,-0.007843,-0.007843,-1.960784,-1.960784,-1.960784,3
0,-2.823529,0,-0.007843,-0.007843,-0.007843,-1.960784,-1.960784,-1.960784,3
0,-2.823529,0,-0.007843,-0.007843,-0.007843,-1.960784,-1.960784,-1.960784,3
0,-2.823529,0,-0.007843,-0.007843,-0.007843,-1.960784,-1.960784,-1.960784,3
0,-2.823529,0,-0.007843,-0.007843,-0.007843,-1.960784,-1.960784,-1.960784,3
0,-2.823529,0,-0.007843,-0.007843,-0.007843,-1.960784,-1.960784,-1.960784,3
0,-2.823529,0,-0.007843,-0.007843,-0.007843,-1.960784,-1.960784,-1.960784,3
0,-2.823529,0,-0.007843,-0.007843,-0.007843,-1.960784,-1.960784,-1.960784,3
0,-2.823529,0,-0.007843,-0.007843,-0.007843,-1.960784,-1.960784,-1.960784,3
0,-2.823529,0,-0.007843,-0.007843,-0.007843,-1.960784,-1.960784,-1.960784,3
0,-2.823529,0,-0.007843,-0.007843,-0.007843,-1.960784,-1.960784,-1.960784,3
0,-2.823529,0,-0.007843,-0.007843,-0.007843,-1.960784,-1.960784,-1.960784,3
0,-2.823529,0,-0.007843,-0.007843,-0.007843,-1.960784,-1.960784,-1.960784,3
0,-2.823529,0,-0.007843,-0.007843,-0.007843,-1.960784,-1.960784,-1.960784,3
0,-2.823529,0,-0.007843,-0.007843,-0.007843,-1.960784,-1.960784,-1.960784,3
0,-2.823529,0,-0.007843,-0.007843,-0.007843,-1.960784,-1.960784,-1.960784,3
0,-2.823529,0,-0.007843,-0.007843,-0.007843,-1.960784,-1.960784,-1.960784,3
0,-2.823529,0,-0.007843,-0.007843,-0.007843,-1.960784,-1.960784,-1.960784,3
0,-2.823529,0,-0.007843,-0.007843,-0.007843,-1.960784,-1.960784,-1.960784,3
0,-2.823529,0,-0.007843,-0.007843,-0.007843,-1.960784,-1.960784,-1.960784,3
0,-2.823529,0,-0.007843,-0.007843,-0.007843,-1.960784,-1.960784,-1.960784,3
0,-2.823529,0,-0.007843,-0.007843,-0.007843,-1.960784,-1.960784,-1.960784,3
0,-2.823529,0,-0.007843,-0.007843,-0.007843,-1.960784,-1.960784,-1.960784,3
0,-2.823529,0,-0.007843,-0.007843,-0.007843,-1.960784,-1.960784,-1.960784,3
0,-2.823529,0,-0.007843,-0.007843,-0.007843,-1.960784,-1.960784,-1.960784,3
0,-2.823529,0,-0.007843,-0.007843,-0.007843,-1.960784,-1.960784,-1.960784,3
0,-2.823529,0,-0.007843,-0.007843,-0.007843,-1.960784,-1.960784,-1.960784,3
0,-2.823529,0,-0.007843,-0.007843,-0.007843,-1.960784,-1.960784,-1.960784,3
0,-2.823529,0,-0.007843,-0.007843,-0.007843,-1.960784,-1.960784,-1.960784,3
0,-2.823529,0,-0.007843,-0.007843,-0.007843,-1.960784,-1.960784,-1.960784,3
0,-2.823529,0,-0.007843,-0.007843,-0.007843,-1.960784,-1.960784,-1.960784,3
0,-2.823529,0,-0.007843,-0.007843,-0.007843,-1.960784,-1.960784,-1.960784,3
0,0,0,0.039216,0.368627,-0.14902,1.960784,1.960784,-1.960784,3
0,-2.823529,0,-0.337255,-0.117647,0.745098,5.882353,-21.568627,-1.960784,3
0,0,-2.823529,-0.305882,0.133333,-0.4,-5.882353,-5.882353,-9.803922,3
0,0,-2.823529,0.180392,0.039216,-0.321569,-1.960784,9.803922,-17.647059,3
0,0,-2.823529,0.101961,-0.039216,0.039216,1.960784,5.882353,-13.72549,3
0,0,-4.235294,-0.14902,-0.023529,-0.462745,-1.960784,1.960784,-13.72549,3
0,0,-4.235294,-0.101961,-0.054902,-0.478431,-1.960784,9.803922,-1.960784,3
0,0,-2.823529,-0.086275,-0.133333,0.698039,-5.882353,-13.72549,9.803922,3
0,0,-2.823529,0.337255,-0.164706,0.713725,1.960784,1.960784,-1.960784,3
0,0,-2.823529,-0.070588,-0.007843,-0.352941,-1.960784,-1.960784,1.960784,3
2.823529,-2.823529,-2.823529,0.196078,0.227451,-1.105882,-5.882353,29.411765,1.960784,3
2.823529,-2.823529,-2.823529,0.070588,0.054902,-0.65098,-1.960784,13.72549,9.803922,3
2.823529,-2.823529,-2.823529,0.039216,-0.117647,0.4,-1.960784,-21.568627,5.882353,3
2.823529,-4.235294,0,-0.258824,0.054902,0.117647,-1.960784,-25.490196,13.72549,3
2.823529,-4.235294,0,0.133333,-0.14902,-0.054902,1.960784,1.960784,21.568627,3
2.823529,-4.235294,1.411765,0.384314,-0.086275,-0.478431,-1.960784,17.647059,17.647059,3
2.823529,-4.235294,1.411765,0.133333,-0.007843,-0.101961,-1.960784,-5.882353,21.568627,3
2.823529,-5.647059,2.823529,-0.368627,-0.133333,0.556863,1.960784,-41.176471,29.411765,3
1.411765,-5.647059,4.235294,-0.290196,-0.086275,0.258824,-5.882353,-21.568627,21.568627,3
1.411765,-5.647059,4.235294,-0.164706,0.039216,0.117647,-1.960784,-9.803922,-1.960784,3
1.411765,-5.647059,4.235294,0.007843,-0.007843,-0.023529,-1.960784,5.882353,-1.960784,3
1.411765,-5.647059,4.235294,0.007843,-0.007843,-0.007843,-1.960784,-1.960784,-1.960784,3
1.411765,-5.647059,4.235294,-0.007843,-0.007843,-0.007843,-1.960784,1.960784,-1.960784,3
1.411765,-5.647059,4.235294,0.007843,-0.007843,-0.007843,-1.960784,-1.960784,-1.960784,3
1.411765,-5.647059,4.235294,-0.023529,-0.007843,-0.007843,-1.960784,-1.960784,-1.960784,3
1.411765,-5.647059,4.235294,0.007843,-0.007843,-0.023529,-1.960784,-1.960784,-1.960784,3
1.411765,-5.647059,4.235294,-0.007843,-0.007843,-0.007843,-1.960784,-1.960784,-1.960784,3
1.411765,-4.235294,4.235294,-0.007843,-0.007843,-0.007843,-1.960784,-1.960784,-1.960784,3
1.411765,-4.235294,4.235294,0.007843,-0.007843,-0.007843,-1.960784,-1.960784,-1.960784,3
1.411765,-4.235294,4.235294,-0.007843,-0.007843,-0.007843,-1.960784,-1.960784,-1.960784,3
1.411765,-4.235294,4.235294,-0.007843,-0.007843,-0.007843,-1.960784,-1.960784,-1.960784,3
1.411765,-4.235294,4.235294,-0.007843,-0.007843,-0.007843,-1.960784,-1.960784,-1.960784,3
1.411765,-4.235294,4.235294,-0.007843,-0.007843,-0.007843,-1.960784,-1.960784,-1.960784,3
1.411765,-4.235294,4.235294,-0.007843,-0.007843,-0.007843,-1.960784,-1.960784,-1.960784,3
1.411765,-4.235294,4.235294,-0.007843,-0.007843,-0.007843,-1.960784,-1.960784,-1.960784,3
1.411765,-4.235294,4.235294,-0.007843,-0.007843,-0.007843,-1.960784,-1.960784,-1.960784,3
1.411765,-4.235294,4.235294,-0.007843,-0.007843,-0.007843,-1.960784,-1.960784,-1.960784,3
1.411765,-4.235294,4.235294,-0.007843,-0.007843,-0.007843,-1.960784,-1.960784,-1.960784,3
1.411765,-4.235294,4.235294,-0.007843,-0.007843,-0.007843,-1.960784,-1.960784,-1.960784,3
1.411765,-4.235294,4.235294,-0.007843,-0.007843,-0.007843,-1.960784,-1.960784,-1.960784,3
1.411765,-4.235294,4.235294,-0.007843,-0.007843,-0.007843,-1.960784,-1.960784,-1.960784,3
1.411765,-4.235294,4.235294,-0.007843,-0.007843,-0.007843,-1.960784,-1.960784,-1.960784,3
1.411765,-4.235294,4.235294,-0.007843,-0.007843,-0.007843,-1.960784,-1.960784,-1.960784,3
1.411765,-4.235294,4.235294,-0.007843,-0.007843,-0.007843,-1.960784,-1.960784,-1.960784,3
1.411765,-4.235294,4.235294,-0.007843,-0.007843,-0.007843,-1.960784,-1.960784,-1.960784,3
1.411765,-4.235294,4.235294,-0.007843,-0.007843,-0.007843,-1.960784,-1.960784,-1.960784,3
1.411765,-4.235294,4.235294,-0.007843,-0.007843,-0.007843,-1.960784,-1.960784,-1.960784,3
1.411765,-4.235294,4.235294,-0.007843,-0.007843,-0.007843,-1.960784,-1.960784,-1.960784,3
1.411765,-4.235294,4.235294,-0.007843,-0.007843,-0.007843,-1.960784,-1.960784,-1.960784,3
1.411765,-4.235294,4.235294,-0.007843,-0.007843,-0.007843,-1.960784,-1.960784,-1.960784,3
1.411765,-4.235294,4.235294,-0.007843,-0.007843,-0.007843,-1.960784,-1.960784,-1.960784,3
1.411765,-4.235294,4.235294,-0.007843,-0.007843,-0.007843,-1.960784,-1.960784,-1.960784,3
0,-4.235294,4.235294,-0.007843,-0.007843,-0.007843,-1.960784,-1.960784,-1.960784,3
0,-4.235294,4.235294,-0.007843,-0.007843,-0.007843,-1.960784,-1.960784,-1.960784,3
0,-4.235294,4.235294,-0.007843,-0.007843,-0.007843,-1.960784,-1.960784,-1.960784,3
0,-4.235294,4.235294,-0.007843,-0.007843,-0.007843,-1.960784,-1.960784,-1.960784,3
0,-4.235294,4.235294,-0.007843,-0.007843,-0.007843,-1.960784,-1.960784,-1.960784,3
0,-4.235294,4.235294,-0.007843,0.007843,0.007843,-1.960784,-1.960784,-1.960784,3
0,-4.235294,4.235294,-0.007843,-0.007843,-0.007843,-1.960784,-1.960784,-1.960784,3
0,-4.235294,4.235294,-0.007843,-0.007843,-0.007843,-1.960784,-1.960784,-1.960784,3
0,-4.235294,4.235294,-0.007843,-0.007843,-0.007843,-1.960784,-1.960784,-1.960784,3
0,-4.235294,4.235294,-0.007843,-0.007843,-0.007843,-1.960784,-1.960784,-1.960784,3
0,-4.235294,4.235294,-0.007843,-0.007843,-0.007843,-1.960784,-1.960784,-1.960784,3
0,-2.823529,4.235294,-0.007843,-0.007843,-0.007843,-1.960784,-1.960784,-1.960784,3
0,-2.823529,4.235294,-0.007843,-0.007843,-0.007843,-1.960784,-1.960784,-1.960784,3
0,-2.823529,4.235294,-0.007843,-0.007843,-0.007843,-1.960784,-1.960784,-1.960784,3
0,-2.823529,4.235294,-0.007843,-0.007843,-0.007843,-1.960784,-1.960784,-1.960784,3
0,-2.823529,4.235294,-0.007843,-0.007843,-0.007843,-1.960784,-1.960784,-1.960784,3
0,-2.823529,4.235294,-0.007843,-0.007843,-0.007843,-1.960784,-1.960784,-1.960784,3
0,-2.823529,4.235294,-0.007843,-0.007843,-0.007843,-1.960784,-1.960784,-1.960784,3
0,-2.823529,4.235294,-0.007843,-0.007843,-0.007843,-1.960784,-1.960784,-1.960784,3
0,-2.823529,4.235294,-0.007843,-0.007843,-0.007843,-1.960784,-1.960784,-1.960784,3
0,-2.823529,4.235294,-0.007843,-0.007843,-0.007843,-1.960784,-1.960784,-1.960784,3
0,-2.823529,4.235294,-0.007843,-0.007843,-0.007843,-1.960784,-1.960784,-1.960784,3
0,-2.823529,4.235294,-0.007843,-0.007843,-0.007843,-1.960784,-1.960784,-1.960784,3
0,-2.823529,4.235294,-0.007843,-0.007843,-0.007843,-1.960784,-1.960784,-1.960784,3
0,-2.823529,4.235294,-0.007843,-0.007843,-0.007843,-1.960784,-1.960784,-1.960784,3
0,-2.823529,4.235294,-0.007843,-0.007843,-0.007843,-1.960784,-1.960784,-1.960784,3
0,-2.823529,4.235294,-0.007843,-0.007843,-0.007843,-1.960784,-1.960784,-1.960784,3
0,-2.823529,4.235294,-0.007843,-0.007843,-0.007843,-1.960784,-1.960784,-1.960784,3
0,-2.823529,4.235294,-0.007843,-0.007843,-0.007843,-1.960784,-1.960784,-1.960784,3
0,-2.823529,4.235294,-0.007843,-0.007843,-0.007843,-1.960784,-1.960784,-1.960784,3
0,-2.823529,4.235294,-0.007843,-0.007843,-0.007843,-1.960784,-1.960784,-1.960784,3
0,-2.823529,4.235294,-0.007843,-0.007843,-0.007843,-1.960784,-1.960784,-1.960784,3
0,-2.823529,4.235294,-0.007843,-0.007843,-0.007843,-1.960784,-1.960784,-1.960784,3
0,-2.823529,4.235294,-0.007843,-0.007843,-0.007843,-1.960784,-1.960784,-1.960784,3
0,-2.823529,4.235294,-0.007843,-0.007843,-0.007843,-1.960784,-1.960784,-1.960784,3
0,-2.823529,4.235294,-0.007843,-0.007843,-0.007843,-1.960784,-1.960784,-1.960784,3
0,-2.823529,4.235294,-0.007843,-0.007843,-0.007843,-1.960784,-1.960784,-1.960784,3
0,-2.823529,4.235294,-0.007843,-0.007843,-0.007843,-1.960784,-1.960784,-1.960784,3
0,-2.823529,4.235294,-0.007843,-0.007843,-0.007843,-1.960784,-1.960784,-1.960784,3
0,-2.823529,4.235294,-0.007843,-0.007843,-0.023529,-1.960784,-1.960784,-1.960784,3
0,-2.823529,4.235294,-0.007843,-0.007843,-0.007843,-1.960784,-1.960784,-1.960784,3
0,-2.823529,4.235294,-0.007843,-0.007843,-0.007843,-1.960784,-1.960784,-1.960784,3
0,-2.823529,4.235294,-0.007843,-0.007843,-0.007843,-1.960784,-1.960784,-1.960784,3
0,-2.823529,4.235294,-0.007843,-0.007843,-0.007843,-1.960784,-1.960784,-1.960784,3
0,-2.823529,4.235294,-0.007843,-0.007843,-0.007843,-1.960784,-1.960784,-1.960784,3
0,-2.823529,4.235294,-0.007843,-0.007843,-0.007843,-1.960784,-1.960784,-1.960784,3
0,-2.823529,4.235294,-0.007843,-0.007843,-0.007843,-1.960784,-1.960784,-1.960784,3
0,-2.823529,4.235294,-0.007843,-0.007843,-0.007843,-1.960784,-1.960784,-1.960784,3
0,-2.823529,4.235294,-0.007843,-0.007843,-0.007843,-1.960784,-1.960784,-1.960784,3
0,-2.823529,4.235294,-0.007843,-0.007843,-0.007843,-1.960784,-1.960784,-1.960784,3
0,-2.823529,4.235294,-0.007843,-0.007843,-0.007843,-1.960784,-1.960784,-1.960784,3
0,-2.823529,4.235294,-0.007843,-0.007843,-0.007843,-1.960784,-1.960784,-1.960784,3
0,-2.823529,4.235294,-0.007843,-0.007843,-0.007843,-1.960784,-1.960784,-1.960784,3
0,-2.823529,4.235294,-0.007843,-0.007843,-0.007843,-1.960784,-1.960784,-1.960784,3
0,-2.823529,4.235294,-0.007843,-0.007843,-0.007843,-1.960784,-1.960784,-1.960784,3
0,-2.823529,4.235294,-0.007843,-0.007843,-0.007843,-1.960784,-1.960784,-1.960784,3
0,-2.823529,4.235294,-0.007843,-0.007843,-0.007843,-1.960784,-1.960784,-1.960784,3
0,-2.823529,4.235294,-0.007843,-0.007843,-0.007843,-1.960784,-1.960784,-1.960784,3
0,-2.823529,4.235294,-0.007843,-0.007843,-0.007843,-1.960784,-1.960784,-1.960784,3
0,-2.823529,4.235294,-0.007843,-0.007843,-0.007843,-1.960784,-1.960784,-1.960784,3
0,-2.823529,4.235294,-0.007843,-0.007843,-0.007843,-1.960784,-1.960784,-1.960784,3
0,-2.823529,4.235294,-0.007843,-0.007843,-0.007843,-1.960784,-1.960784,-1.960784,3
0,-2.823529,4.235294,-0.007843,-0.007843,-0.007843,-1.960784,-1.960784,-1.960784,3
0,-2.823529,4.235294,-0.007843,-0.007843,-0.007843,-1.960784,-1.960784,-1.960784,3
0,-2.823529,4.235294,-0.007843,-0.007843,-0.007843,-1.960784,-1.960784,-1.960784,3
0,-2.823529,4.235294,-0.007843,-0.007843,-0.007843,-1.960784,-1.960784,-1.960784,3
0,-2.823529,4.235294,-0.007843,-0.007843,-0.007843,-1.960784,-1.960784,-1.960784,3
0,-2.823529,4.235294,-0.007843,-0.007843,-0.007843,-1.960784,-1.960784,-1.960784,3
0,-2.823529,4.235294,-0.007843,-0.007843,-0.007843,-1.960784,-1.960784,-1.960784,3
0,-2.823529,4.235294,-0.007843,-0.007843,-0.007843,-1.960784,-1.960784,-1.960784,3
0,-2.823529,4.235294,-0.007843,-0.007843,-0.007843,-1.960784,-1.960784,-1.960784,3
0,-2.823529,4.235294,-0.007843,-0.007843,-0.007843,-1.960784,-1.960784,-1.960784,3
0,-2.823529,4.235294,-0.007843,-0.007843,-0.007843,-1.960784,-1.960784,-1.960784,3
0,-2.823529,4.235294,-0.007843,-0.007843,-0.007843,-1.960784,-1.960784,-1.960784,3
0,-2.823529,4.235294,-0.007843,-0.007843,-0.007843,-1.960784,-1.960784,-1.960784,3
0,-2.823529,4.235294,-0.007843,-0.007843,-0.007843,-1.960784,-1.960784,-1.960784,3
0,-2.823529,4.235294,-0.007843,-0.007843,-0.007843,-1.960784,-1.960784,-1.960784,3
0,-2.823529,4.235294,-0.007843,-0.007843,-0.007843,-1.960784,-1.960784,-1.960784,3
0,-2.823529,4.235294,-0.007843,-0.007843,-0.007843,-1.960784,-1.960784,-1.960784,3
0,-2.823529,4.235294,-0.007843,-0.007843,-0.007843,-1.960784,-1.960784,-1.960784,3
0,-2.823529,4.235294,-0.007843,-0.007843,-0.007843,-1.960784,-1.960784,-1.960784,3
0,-2.823529,4.235294,-0.007843,-0.007843,-0.007843,-1.960784,-1.960784,-1.960784,3
0,-2.823529,4.235294,-0.007843,-0.007843,-0.007843,-1.960784,-1.960784,-1.960784,3
0,-2.823529,4.235294,-0.007843,-0.007843,-0.007843,-1.960784,-1.960784,-1.960784,3
0,-2.823529,4.235294,-0.007843,-0.007843,-0.007843,-1.960784,-1.960784,-1.960784,3
0,-2.823529,4.235294,-0.007843,-0.007843,-0.007843,-1.960784,-1.960784,-1.960784,3
0,-2.823529,4.235294,-0.007843,-0.007843,-0.007843,-1.960784,-1.960784,-1.960784,3
0,-2.823529,4.235294,-0.007843,-0.007843,-0.007843,-1.960784,-1.960784,-1.960784,3
0,-2.823529,4.235294,-0.007843,-0.007843,-0.007843,-1.960784,-1.960784,-1.960784,3
0,-2.823529,4.235294,-0.007843,-0.007843,-0.007843,-1.960784,-1.960784,-1.960784,3
0,-2.823529,4.235294,-0.007843,-0.007843,-0.007843,-1.960784,-1.960784,-1.960784,3
0,-2.823529,4.235294,-0.007843,-0.007843,-0.007843,-1.960784,-1.960784,-1.960784,3
0,-2.823529,4.235294,-0.007843,-0.007843,-0.007843,-1.960784,-1.960784,-1.960784,3
0,-2.823529,4.235294,-0.007843,-0.007843,-0.007843,-1.960784,-1.960784,-1.960784,3
0,-2.823529,4.235294,-0.007843,-0.007843,-0.007843,-1.960784,-1.960784,-1.960784,3
0,-2.823529,4.235294,-0.007843,-0.007843,-0.007843,-1.960784,-1.960784,-1.960784,3
0,-2.823529,4.235294,-0.007843,-0.007843,0.007843,-1.960784,-1.960784,-1.960784,3
0,-2.823529,4.235294,-0.007843,-0.007843,-0.007843,-1.960784,-1.960784,-1.960784,3
0,-2.823529,4.235294,-0.007843,-0.007843,-0.007843,-1.960784,-1.960784,-1.960784,3
0,-2.823529,4.235294,-0.007843,-0.007843,-0.007843,-1.960784,-1.960784,-1.960784,3
0,-2.823529,4.235294,-0.007843,-0.007843,-0.007843,-1.960784,-1.960784,-1.960784,3
0,-2.823529,4.235294,-0.007843,-0.007843,-0.007843,-1.960784,-1.960784,-1.960784,3
0,-2.823529,4.235294,-0.007843,-0.007843,-0.007843,-1.960784,-1.960784,-1.960784,3
0,-2.823529,4.235294,-0.007843,-0.007843,-0.007843,-1.960784,-1.960784,-1.960784,3
0,-2.823529,4.235294,-0.007843,-0.007843,-0.007843,-1.960784,-1.960784,-1.960784,3
0,-2.823529,4.235294,-0.007843,-0.007843,-0.007843,-1.960784,-1.960784,-1.960784,3
0,-2.823529,4.235294,-0.007843,-0.007843,-0.007843,-1.960784,-1.960784,-1.960784,3
0,-2.823529,4.235294,-0.007843,-0.007843,-0.007843,-1.960784,-1.960784,-1.960784,3
0,-2.823529,4.235294,-0.007843,-0.007843,-0.007843,-1.960784,-1.960784,-1.960784,3
0,-2.823529,4.235294,-0.007843,-0.007843,-0.007843,-1.960784,-1.960784,-1.960784,3
0,-2.823529,4.235294,-0.007843,-0.007843,-0.007843,-1.960784,-1.960784,-1.960784,3
0,-2.823529,4.235294,-0.007843,-0.007843,-0.007843,-1.960784,-1.960784,-1.960784,3
0,-2.823529,4.235294,-0.007843,-0.007843,-0.007843,-1.960784,-1.960784,-1.960784,3
0,-2.823529,4.235294,-0.007843,-0.007843,-0.007843,-1.960784,-1.960784,-1.960784,3
0,-2.823529,4.235294,-0.007843,-0.007843,-0.007843,-1.960784,-1.960784,-1.960784,3
0,-2.823529,4.235294,-0.007843,-0.007843,-0.007843,-1.960784,-1.960784,-1.960784,3
0,-2.823529,4.235294,-0.007843,-0.007843,-0.007843,-1.960784,-1.960784,-1.960784,3
0,-2.823529,4.235294,-0.007843,-0.007843,-0.007843,-1.960784,-1.960784,-1.960784,3
0,-2.823529,4.235294,-0.007843,-0.007843,-0.007843,-1.960784,-1.960784,-1.960784,3
0,-2.823529,4.235294,-0.007843,-0.007843,-0.007843,-1.960784,-1.960784,-1.960784,3
0,-2.823529,4.235294,-0.007843,-0.007843,-0.007843,-1.960784,-1.960784,-1.960784,3
0,-2.823529,4.235294,-0.007843,-0.007843,-0.007843,-1.960784,-1.960784,-1.960784,3
0,-2.823529,4.235294,-0.007843,-0.007843,-0.007843,-1.960784,-1.960784,-1.960784,3
0,-2.823529,4.235294,-0.007843,-0.007843,-0.007843,-1.960784,-1.960784,-1.960784,3
0,-2.823529,4.235294,-0.007843,-0.007843,-0.007843,-1.960784,-1.960784,-1.960784,3
0,-2.823529,4.235294,-0.007843,-0.007843,-0.007843,-1.960784,-1.960784,-1.960784,3
0,-2.823529,4.235294,-0.007843,-0.007843,-0.007843,-1.960784,-1.960784,-1.960784,3
0,-2.823529,4.235294,-0.007843,-0.007843,-0.007843,-1.960784,-1.960784,-1.960784,3
0,-2.823529,4.235294,-0.007843,-0.007843,-0.007843,-1.960784,-1.960784,-1.960784,3
0,-2.823529,4.235294,-0.007843,-0.007843,-0.007843,-1.960784,-1.960784,-1.960784,3
0,-2.823529,4.235294,-0.007843,-0.007843,-0.007843,-1.960784,-1.960784,-1.960784,3
0,-2.823529,4.235294,-0.007843,-0.007843,-0.007843,-1.960784,-1.960784,-1.960784,3
0,-2.823529,4.235294,-0.007843,-0.007843,-0.007843,-1.960784,-1.960784,-1.960784,3
0,-2.823529,4.235294,-0.007843,-0.007843,-0.007843,-1.960784,-1.960784,-1.960784,3
0,-2.823529,4.235294,-0.007843,-0.007843,-0.007843,-1.960784,-1.960784,-1.960784,3
0,-2.823529,4.235294,-0.023529,-0.007843,-0.007843,-1.960784,-1.960784,-1.960784,3
0,-2.823529,4.235294,-0.007843,-0.007843,-0.007843,-1.960784,-1.960784,-1.960784,3
0,-2.823529,4.235294,-0.007843,-0.007843,-0.007843,-1.960784,-1.960784,-1.960784,3
0,-2.823529,4.235294,-0.007843,-0.007843,-0.007843,-1.960784,-1.960784,-1.960784,3
0,-2.823529,4.235294,-0.007843,-0.007843,-0.007843,-1.960784,-1.960784,-1.960784,3
