Eulerx,Eulery,Eulerz,Accx,Accy,Accz,Gyrox,Gyroy,Gyroz,Label
-2.823529,0,-46.588235,-0.007843,-0.023529,-0.007843,-1.960784,-1.960784,-1.960784,Null
-2.823529,0,-46.588235,-0.007843,-0.023529,-0.007843,-1.960784,-1.960784,-1.960784,Null
-2.823529,0,-46.588235,-0.007843,-0.023529,-0.007843,-1.960784,-1.960784,-1.960784,Null
-2.823529,0,-46.588235,-0.007843,-0.023529,-0.007843,-1.960784,-1.960784,-1.960784,Null
-2.823529,0,-46.588235,-0.023529,-0.023529,-0.007843,-1.960784,-1.960784,-1.960784,Null
-2.823529,0,-46.588235,-0.007843,-0.023529,-0.007843,-1.960784,-1.960784,-1.960784,Null
-2.823529,0,-46.588235,-0.007843,-0.023529,-0.007843,-1.960784,-1.960784,-1.960784,Null
-2.823529,0,-46.588235,-0.007843,-0.023529,-0.007843,-1.960784,-1.960784,-1.960784,Null
-2.823529,0,-46.588235,-0.007843,-0.023529,-0.007843,-1.960784,-1.960784,-1.960784,Null
-2.823529,0,-46.588235,-0.007843,-0.023529,-0.007843,-1.960784,-1.960784,-1.960784,Null
-2.823529,0,-46.588235,-0.007843,-0.023529,-0.007843,-1.960784,-1.960784,-1.960784,Null
-2.823529,0,-46.588235,-0.007843,-0.023529,-0.007843,-1.960784,-1.960784,-1.960784,Null
-2.823529,0,-46.588235,-0.007843,-0.023529,-0.007843,-1.960784,-1.960784,-1.960784,Null
-2.823529,0,-46.588235,-0.023529,-0.023529,-0.007843,-1.960784,-1.960784,-1.960784,Null
-2.823529,0,-46.588235,-0.007843,-0.023529,-0.007843,-1.960784,-1.960784,-1.960784,Null
-2.823529,0,-46.588235,-0.007843,-0.023529,-0.007843,-1.960784,-1.960784,-1.960784,Null
-2.823529,0,-46.588235,-0.007843,-0.023529,0.007843,-1.960784,-1.960784,-1.960784,Null
-2.823529,0,-46.588235,-0.023529,-0.023529,-0.007843,-1.960784,-1.960784,-1.960784,Null
-2.823529,0,-46.588235,-0.007843,-0.023529,-0.007843,-1.960784,-1.960784,-1.960784,Null
-2.823529,0,-46.588235,-0.007843,-0.023529,-0.007843,-1.960784,-1.960784,-1.960784,Null
-2.823529,0,-46.588235,-0.007843,-0.023529,-0.007843,-1.960784,-1.960784,-1.960784,Null
-2.823529,0,-46.588235,-0.007843,-0.023529,-0.007843,-1.960784,-1.960784,-1.960784,Null
-2.823529,0,-46.588235,-0.007843,-0.023529,-0.007843,-1.960784,-1.960784,-1.960784,Null
-2.823529,0,-46.588235,-0.007843,-0.039216,-0.007843,-1.960784,-1.960784,-1.960784,Null
-2.823529,0,-46.588235,-0.007843,-0.023529,-0.007843,-1.960784,-1.960784,-1.960784,Null
-2.823529,0,-46.588235,-0.007843,-0.023529,-0.007843,-1.960784,-1.960784,-1.960784,Null
-2.823529,0,-46.588235,-0.023529,-0.023529,-0.007843,-1.960784,-1.960784,-1.960784,Null
-2.823529,0,-46.588235,-0.007843,-0.023529,-0.007843,-1.960784,-1.960784,-1.960784,Null
-2.823529,0,-46.588235,-0.007843,-0.023529,-0.007843,-1.960784,-1.960784,-1.960784,Null
-2.823529,0,-46.588235,-0.007843,-0.023529,0.007843,-1.960784,-1.960784,-1.960784,Null
-2.823529,0,-46.588235,-0.007843,-0.023529,-0.007843,-1.960784,-1.960784,-1.960784,Null
-2.823529,0,-46.588235,-0.023529,-0.023529,0.007843,-1.960784,-1.960784,-1.960784,Null
-2.823529,0,-46.588235,-0.007843,-0.023529,-0.007843,-1.960784,-1.960784,-1.960784,Null
-2.823529,0,-46.588235,-0.023529,-0.023529,-0.007843,-1.960784,-1.960784,-1.960784,Null
-2.823529,0,-46.588235,-0.023529,-0.023529,-0.007843,-1.960784,-1.960784,-1.960784,Null
-2.823529,0,-46.588235,-0.007843,-0.023529,-0.007843,-1.960784,-1.960784,-1.960784,Null
-2.823529,0,-46.588235,-0.007843,-0.023529,-0.007843,-1.960784,-1.960784,-1.960784,Null
-2.823529,0,-46.588235,-0.023529,-0.023529,-0.007843,-1.960784,-1.960784,-1.960784,Null
-2.823529,0,-46.588235,-0.007843,-0.023529,-0.007843,-1.960784,-1.960784,-1.960784,Null
-2.823529,0,-46.588235,-0.007843,-0.023529,-0.007843,-1.960784,-1.960784,-1.960784,Null
-2.823529,0,-46.588235,-0.007843,-0.023529,-0.007843,-1.960784,-1.960784,-1.960784,Null
-2.823529,0,-48,-0.007843,-0.023529,-0.007843,-1.960784,-1.960784,-1.960784,Null
-2.823529,0,-48,-0.023529,-0.023529,-0.007843,-1.960784,-1.960784,-1.960784,Null
-2.823529,0,-48,-0.023529,-0.023529,-0.007843,-1.960784,-1.960784,-1.960784,Null
-2.823529,0,-48,-0.023529,-0.023529,-0.007843,-1.960784,-1.960784,-1.960784,Null
-2.823529,0,-48,-0.007843,-0.023529,-0.007843,-1.960784,-1.960784,-1.960784,Null
-2.823529,0,-48,-0.007843,-0.023529,-0.007843,-1.960784,-1.960784,-1.960784,Null
-2.823529,0,-48,-0.007843,-0.023529,-0.007843,-1.960784,-1.960784,-1.960784,Null
-2.823529,0,-48,-0.007843,-0.023529,-0.007843,-1.960784,-1.960784,-1.960784,Null
-2.823529,0,-48,-0.007843,-0.023529,-0.007843,-1.960784,-1.960784,-1.960784,Null
-2.823529,0,-48,-0.007843,-0.023529,-0.007843,-1.960784,-1.960784,-1.960784,Null
-2.823529,0,-48,-0.007843,-0.023529,-0.007843,-1.960784,-1.960784,-1.960784,Null
-2.823529,0,-48,-0.023529,-0.023529,-0.007843,-1.960784,-1.960784,-1.960784,Null
-2.823529,0,-48,-0.007843,-0.023529,-0.007843,-1.960784,-1.960784,-1.960784,Null
-2.823529,0,-48,-0.023529,-0.023529,-0.007843,-1.960784,-1.960784,-1.960784,Null
-2.823529,0,-48,-0.007843,-0.023529,-0.007843,-1.960784,-1.960784,-1.960784,Null
-2.823529,0,-48,-0.007843,-0.023529,-0.007843,-1.960784,-1.960784,-1.960784,Null
-2.823529,0,-48,-0.007843,-0.023529,-0.007843,-1.960784,-1.960784,-1.960784,Null
-2.823529,0,-48,-0.007843,-0.023529,-0.007843,-1.960784,-1.960784,-1.960784,Null
-2.823529,0,-48,-0.007843,-0.023529,-0.007843,-1.960784,-1.960784,-1.960784,Null
-2.823529,0,-48,-0.007843,-0.023529,-0.007843,-1.960784,-1.960784,-1.960784,Null
-2.823529,0,-48,-0.007843,-0.023529,-0.007843,-1.960784,-1.960784,-1.960784,Null
-2.823529,0,-48,-0.007843,-0.023529,-0.007843,-1.960784,-1.960784,-1.960784,Null
-2.823529,0,-48,-0.007843,-0.023529,-0.007843,-1.960784,-1.960784,-1.960784,Null
-2.823529,0,-48,-0.023529,-0.023529,-0.007843,-1.960784,-1.960784,-1.960784,Null
-2.823529,0,-48,-0.007843,-0.023529,-0.007843,-1.960784,-1.960784,-1.960784,Null
-2.823529,0,-48,-0.007843,-0.023529,-0.007843,-1.960784,-1.960784,-1.960784,Null
-2.823529,0,-48,-0.007843,-0.023529,-0.007843,-1.960784,-1.960784,-1.960784,Null
-2.823529,0,-48,-0.023529,-0.023529,-0.007843,-1.960784,-1.960784,-1.960784,Null
-2.823529,0,-48,-0.007843,-0.023529,-0.007843,-1.960784,-1.960784,-1.960784,Null
-2.823529,0,-48,-0.007843,-0.023529,-0.007843,-1.960784,-1.960784,-1.960784,Null
-2.823529,0,-48,-0.007843,-0.023529,-0.007843,-1.960784,-1.960784,-1.960784,Null
-2.823529,0,-48,-0.007843,-0.023529,-0.007843,-1.960784,-1.960784,-1.960784,Null
-2.823529,0,-48,-0.007843,-0.023529,-0.007843,-1.960784,-1.960784,-1.960784,Null
-2.823529,0,-48,-0.007843,-0.023529,-0.007843,-1.960784,-1.960784,-1.960784,Null
-2.823529,0,-48,-0.007843,-0.023529,-0.007843,-1.960784,-1.960784,-1.960784,Null
-2.823529,0,-48,-0.023529,-0.023529,-0.007843,-1.960784,-1.960784,-1.960784,Null
-2.823529,0,-48,-0.023529,-0.023529,-0.007843,-1.960784,-1.960784,-1.960784,Null
-2.823529,0,-48,-0.007843,-0.023529,-0.007843,-1.960784,-1.960784,-1.960784,Null
-2.823529,0,-48,-0.007843,-0.023529,-0.007843,-1.960784,-1.960784,-1.960784,Null
-2.823529,0,-48,-0.007843,-0.023529,-0.007843,-1.960784,-1.960784,-1.960784,Null
-2.823529,0,-48,-0.007843,-0.023529,-0.007843,-1.960784,-1.960784,-1.960784,Null
-2.823529,0,-48,-0.007843,-0.023529,-0.007843,-1.960784,-1.960784,-1.960784,Null
-2.823529,0,-48,-0.007843,-0.023529,-0.007843,-1.960784,-1.960784,-1.960784,Null
-2.823529,0,-48,-0.007843,-0.023529,-0.007843,-1.960784,-1.960784,-1.960784,Null
-2.823529,0,-48,-0.023529,-0.023529,-0.007843,-1.960784,-1.960784,-1.960784,Null
-2.823529,0,-48,-0.007843,-0.023529,-0.007843,-1.960784,-1.960784,-1.960784,Null
-2.823529,0,-48,-0.007843,-0.023529,0.007843,-1.960784,-1.960784,-1.960784,Null
-2.823529,0,-49.411765,-0.007843,-0.023529,-0.007843,-1.960784,-1.960784,-1.960784,Null
-2.823529,0,-49.411765,-0.007843,-0.023529,-0.007843,-1.960784,-1.960784,-1.960784,Null
-2.823529,0,-49.411765,-0.023529,-0.023529,-0.007843,-1.960784,-1.960784,-1.960784,Null
-2.823529,0,-49.411765,-0.007843,-0.023529,0.007843,-1.960784,-1.960784,-1.960784,Null
-2.823529,0,-49.411765,-0.007843,-0.023529,-0.007843,-1.960784,-1.960784,-1.960784,Null
-2.823529,0,-49.411765,-0.007843,-0.023529,-0.007843,-1.960784,-1.960784,-1.960784,Null
-2.823529,0,-49.411765,-0.023529,-0.023529,-0.007843,-1.960784,-1.960784,-1.960784,Null
-2.823529,0,-49.411765,-0.023529,-0.023529,-0.007843,-1.960784,-1.960784,-1.960784,Null
-2.823529,0,-49.411765,-0.007843,-0.023529,-0.007843,-1.960784,-1.960784,-1.960784,Null
-2.823529,0,-49.411765,-0.007843,-0.023529,-0.007843,-1.960784,-1.960784,-1.960784,Null
-2.823529,0,-49.411765,-0.007843,-0.023529,-0.007843,-1.960784,-1.960784,-1.960784,Null
-2.823529,0,-49.411765,-0.007843,-0.023529,-0.007843,-1.960784,-1.960784,-1.960784,Null
-2.823529,0,-49.411765,-0.007843,-0.023529,-0.023529,-1.960784,-1.960784,-1.960784,Null
-2.823529,0,-49.411765,-0.007843,-0.023529,-0.007843,-1.960784,-1.960784,-1.960784,Null
-2.823529,0,-49.411765,-0.007843,-0.023529,-0.007843,-1.960784,-1.960784,-1.960784,Null
-2.823529,0,-49.411765,-0.023529,-0.023529,-0.007843,-1.960784,-1.960784,-1.960784,Null
-2.823529,0,-49.411765,-0.023529,-0.023529,-0.007843,-1.960784,-1.960784,-1.960784,Null
-2.823529,0,-49.411765,-0.007843,-0.023529,-0.007843,-1.960784,-1.960784,-1.960784,Null
-2.823529,0,-49.411765,-0.007843,-0.023529,-0.007843,-1.960784,-1.960784,-1.960784,Null
-2.823529,0,-49.411765,-0.007843,-0.023529,-0.007843,-1.960784,-1.960784,-1.960784,Null
-2.823529,0,-49.411765,-0.007843,-0.023529,-0.007843,-1.960784,-1.960784,-1.960784,Null
-2.823529,0,-49.411765,-0.007843,-0.023529,-0.007843,-1.960784,-1.960784,-1.960784,Null
-2.823529,0,-49.411765,-0.007843,-0.023529,-0.007843,-1.960784,-1.960784,-1.960784,Null
-2.823529,0,-49.411765,-0.023529,-0.023529,-0.007843,-1.960784,-1.960784,-1.960784,Null
-2.823529,0,-49.411765,-0.007843,-0.023529,-0.007843,-1.960784,-1.960784,-1.960784,Null
-2.823529,0,-49.411765,-0.023529,-0.023529,-0.007843,-1.960784,-1.960784,-1.960784,Null
-2.823529,0,-49.411765,-0.007843,-0.023529,-0.007843,-1.960784,-1.960784,-1.960784,Null
-2.823529,0,-49.411765,-0.007843,-0.023529,-0.007843,-1.960784,-1.960784,-1.960784,Null
-2.823529,0,-49.411765,-0.007843,-0.023529,-0.007843,-1.960784,-1.960784,-1.960784,Null
-2.823529,0,-49.411765,-0.007843,-0.023529,-0.007843,-1.960784,-1.960784,-1.960784,Null
-2.823529,0,-49.411765,-0.007843,-0.023529,-0.007843,-1.960784,-1.960784,-1.960784,Null
-2.823529,0,-49.411765,-0.007843,-0.023529,-0.007843,-1.960784,-1.960784,-1.960784,Null
-2.823529,0,-49.411765,-0.007843,-0.023529,-0.007843,-1.960784,-1.960784,-1.960784,Null
-2.823529,0,-49.411765,-0.007843,-0.023529,-0.007843,-1.960784,-1.960784,-1.960784,Null
-2.823529,0,-49.411765,-0.023529,-0.023529,-0.007843,-1.960784,-1.960784,-1.960784,Null
-2.823529,0,-49.411765,-0.007843,-0.023529,-0.007843,-1.960784,-1.960784,-1.960784,Null
-2.823529,0,-49.411765,-0.007843,-0.023529,-0.007843,-1.960784,-1.960784,-1.960784,Null
-2.823529,0,-49.411765,-0.023529,-0.023529,-0.007843,-1.960784,-1.960784,-1.960784,Null
-2.823529,0,-49.411765,-0.007843,-0.023529,-0.007843,-1.960784,-1.960784,-1.960784,Null
-2.823529,0,-49.411765,-0.007843,-0.023529,-0.007843,-1.960784,-1.960784,-1.960784,Null
-2.823529,0,-49.411765,-0.007843,-0.023529,-0.007843,-1.960784,-1.960784,-1.960784,Null
-2.823529,0,-49.411765,-0.007843,-0.039216,-0.007843,-1.960784,-1.960784,-1.960784,Null
-2.823529,0,-49.411765,-0.007843,-0.023529,-0.007843,-1.960784,-1.960784,-1.960784,Null
-2.823529,0,-49.411765,-0.007843,-0.023529,-0.007843,-1.960784,-1.960784,-1.960784,Null
-2.823529,0,-49.411765,-0.007843,-0.023529,-0.007843,-1.960784,-1.960784,-1.960784,Null
-2.823529,0,-49.411765,-0.007843,-0.023529,-0.007843,-1.960784,-1.960784,-1.960784,Null
-2.823529,0,-50.823529,-0.007843,-0.023529,-0.007843,-1.960784,-1.960784,-1.960784,Null
-2.823529,0,-50.823529,-0.007843,-0.023529,0.007843,-1.960784,-1.960784,-1.960784,Null
-2.823529,0,-50.823529,-0.007843,-0.023529,-0.007843,-1.960784,-1.960784,-1.960784,Null
-2.823529,0,-50.823529,-0.007843,-0.023529,-0.007843,-1.960784,-1.960784,-1.960784,Null
-2.823529,0,-50.823529,-0.007843,-0.023529,-0.007843,-1.960784,-1.960784,-1.960784,Null
-2.823529,0,-50.823529,-0.007843,-0.023529,-0.007843,-1.960784,-1.960784,-1.960784,Null
-2.823529,0,-50.823529,-0.007843,-0.023529,-0.007843,-1.960784,-1.960784,-1.960784,Null
-2.823529,0,-50.823529,-0.023529,-0.023529,-0.007843,-1.960784,-1.960784,-1.960784,Null
-2.823529,0,-50.823529,-0.007843,-0.023529,-0.007843,-1.960784,-1.960784,-1.960784,Null
-2.823529,0,-50.823529,-0.023529,-0.023529,-0.007843,-1.960784,-1.960784,-1.960784,Null
-2.823529,0,-50.823529,-0.007843,-0.023529,-0.007843,-1.960784,-1.960784,-1.960784,Null
-2.823529,0,-50.823529,-0.007843,-0.023529,-0.007843,-1.960784,-1.960784,-1.960784,Null
-2.823529,0,-50.823529,-0.007843,-0.023529,-0.007843,-1.960784,-1.960784,-1.960784,Null
-2.823529,0,-50.823529,-0.007843,-0.023529,-0.007843,-1.960784,-1.960784,-1.960784,Null
-2.823529,0,-50.823529,-0.007843,-0.023529,-0.007843,-1.960784,-1.960784,-1.960784,Null
-2.823529,0,-50.823529,-0.007843,-0.023529,-0.007843,-1.960784,-1.960784,-1.960784,Null
-2.823529,0,-50.823529,-0.007843,-0.023529,-0.007843,-1.960784,-1.960784,-1.960784,Null
-2.823529,0,-50.823529,-0.007843,-0.023529,-0.007843,-1.960784,-1.960784,-1.960784,Null
-2.823529,0,-50.823529,-0.007843,-0.023529,-0.007843,-1.960784,-1.960784,-1.960784,Null
-2.823529,0,-50.823529,-0.007843,-0.023529,-0.007843,-1.960784,-1.960784,-1.960784,Null
-2.823529,0,-50.823529,-0.007843,-0.023529,-0.007843,-1.960784,-1.960784,-1.960784,Null
-2.823529,0,-50.823529,-0.007843,-0.023529,-0.007843,-1.960784,-1.960784,-1.960784,Null
-2.823529,0,-50.823529,-0.007843,-0.023529,-0.007843,-1.960784,-1.960784,-1.960784,Null
-2.823529,0,-50.823529,-0.007843,-0.023529,-0.007843,-1.960784,-1.960784,-1.960784,Null
-2.823529,0,-50.823529,-0.007843,-0.023529,-0.007843,-1.960784,-1.960784,-1.960784,Null
-2.823529,0,-50.823529,-0.007843,-0.023529,-0.007843,-1.960784,-1.960784,-1.960784,Null
-2.823529,0,-50.823529,-0.023529,-0.023529,-0.007843,-1.960784,-1.960784,-1.960784,Null
-2.823529,0,-50.823529,-0.023529,-0.023529,-0.007843,-1.960784,-1.960784,-1.960784,Null
-2.823529,0,-50.823529,-0.023529,-0.023529,-0.007843,-1.960784,-1.960784,-1.960784,Null
-2.823529,0,-50.823529,-0.007843,-0.023529,-0.007843,-1.960784,-1.960784,-1.960784,Null
-2.823529,0,-50.823529,-0.007843,-0.023529,-0.007843,-1.960784,-1.960784,-1.960784,Null
-2.823529,0,-50.823529,-0.007843,-0.023529,-0.007843,-1.960784,-1.960784,-1.960784,Null
-2.823529,0,-50.823529,-0.007843,-0.023529,-0.007843,-1.960784,-1.960784,-1.960784,Null
-2.823529,0,-50.823529,-0.007843,-0.023529,-0.007843,-1.960784,-1.960784,-1.960784,Null
-2.823529,0,-50.823529,-0.007843,-0.023529,-0.007843,-1.960784,-1.960784,-1.960784,Null
-2.823529,0,-50.823529,-0.007843,-0.023529,-0.007843,-1.960784,-1.960784,-1.960784,Null
-2.823529,0,-50.823529,-0.023529,-0.023529,-0.007843,-1.960784,-1.960784,-1.960784,Null
-2.823529,0,-50.823529,-0.007843,-0.023529,0.007843,-1.960784,-1.960784,-1.960784,Null
-2.823529,0,-50.823529,-0.007843,-0.023529,-0.007843,-1.960784,-1.960784,-1.960784,Null
-2.823529,0,-50.823529,-0.007843,-0.023529,-0.007843,-1.960784,-1.960784,-1.960784,Null
-2.823529,0,-50.823529,-0.007843,-0.023529,-0.007843,-1.960784,-1.960784,-1.960784,Null
-2.823529,0,-50.823529,-0.023529,-0.039216,-0.007843,-1.960784,-1.960784,-1.960784,Null
-2.823529,0,-50.823529,-0.007843,-0.023529,-0.007843,-1.960784,-1.960784,-1.960784,Null
-2.823529,0,-50.823529,-0.007843,-0.023529,-0.007843,-1.960784,-1.960784,-1.960784,Null
-2.823529,0,-50.823529,-0.007843,-0.023529,-0.007843,-1.960784,-1.960784,-1.960784,Null
-2.823529,0,-50.823529,-0.023529,-0.023529,-0.007843,-1.960784,-1.960784,-1.960784,Null
-2.823529,0,-50.823529,-0.023529,-0.023529,-0.023529,-1.960784,-1.960784,-1.960784,Null
-2.823529,0,-52.235294,-0.007843,-0.039216,-0.007843,-1.960784,-1.960784,-1.960784,3
-2.823529,0,-52.235294,-0.023529,-0.023529,-0.007843,-1.960784,-1.960784,-1.960784,3
-2.823529,0,-52.235294,-0.023529,-0.023529,-0.007843,-1.960784,-1.960784,-1.960784,3
-2.823529,0,-52.235294,-0.007843,-0.023529,0.007843,-1.960784,-1.960784,-1.960784,3
-2.823529,0,-52.235294,-0.007843,-0.023529,-0.007843,-1.960784,-1.960784,-1.960784,3
-2.823529,0,-52.235294,-0.007843,-0.023529,-0.007843,-1.960784,-1.960784,-1.960784,3
-2.823529,0,-52.235294,-0.007843,-0.023529,-0.007843,-1.960784,-1.960784,-1.960784,3
-2.823529,0,-52.235294,-0.007843,-0.023529,-0.007843,-1.960784,-1.960784,-1.960784,3
-2.823529,0,-52.235294,-0.007843,-0.023529,-0.007843,-1.960784,-1.960784,-1.960784,3
-2.823529,0,-52.235294,-0.023529,-0.023529,-0.007843,-1.960784,-1.960784,-1.960784,3
-2.823529,0,-52.235294,-0.007843,-0.023529,-0.007843,-1.960784,-1.960784,-1.960784,3
-2.823529,0,-52.235294,-0.007843,-0.023529,-0.007843,-1.960784,-1.960784,-1.960784,3
-2.823529,0,-52.235294,-0.023529,-0.023529,-0.007843,-1.960784,-1.960784,-1.960784,3
-2.823529,0,-52.235294,-0.007843,-0.023529,-0.007843,-1.960784,-1.960784,-1.960784,3
-2.823529,0,-52.235294,-0.007843,-0.023529,-0.007843,-1.960784,-1.960784,-1.960784,3
-2.823529,0,-52.235294,-0.023529,-0.023529,0.007843,-1.960784,-1.960784,-1.960784,3
-2.823529,0,-52.235294,-0.007843,-0.023529,-0.007843,-1.960784,-1.960784,-1.960784,3
-2.823529,0,-52.235294,-0.007843,-0.023529,-0.007843,-1.960784,-1.960784,-1.960784,3
-2.823529,0,-52.235294,-0.023529,-0.023529,-0.007843,-1.960784,-1.960784,-1.960784,3
-2.823529,0,-52.235294,-0.007843,-0.023529,-0.007843,-1.960784,-1.960784,-1.960784,3
-2.823529,0,-52.235294,-0.007843,-0.023529,-0.007843,-1.960784,-1.960784,-1.960784,3
-2.823529,0,-52.235294,-0.023529,-0.023529,0.007843,-1.960784,-1.960784,-1.960784,3
-2.823529,0,-52.235294,-0.007843,-0.023529,-0.007843,-1.960784,-1.960784,-1.960784,3
-2.823529,0,-52.235294,-0.007843,-0.023529,-0.007843,-1.960784,-1.960784,-1.960784,3
-2.823529,0,-52.235294,-0.007843,-0.023529,-0.007843,-1.960784,-1.960784,-1.960784,3
-2.823529,0,-52.235294,-0.007843,-0.023529,0.007843,-1.960784,-1.960784,-1.960784,3
-2.823529,0,-52.235294,-0.007843,-0.023529,-0.007843,-1.960784,-1.960784,-1.960784,3
-2.823529,0,-52.235294,-0.023529,-0.023529,-0.007843,-1.960784,-1.960784,-1.960784,3
-2.823529,0,-52.235294,-0.007843,-0.023529,-0.007843,-1.960784,-1.960784,-1.960784,3
-2.823529,0,-52.235294,-0.007843,-0.023529,-0.007843,-1.960784,-1.960784,-1.960784,3
-2.823529,0,-52.235294,-0.007843,-0.023529,-0.007843,-1.960784,-1.960784,-1.960784,3
-2.823529,0,-52.235294,-0.007843,-0.023529,-0.007843,-1.960784,-1.960784,-1.960784,3
-2.823529,0,-52.235294,-0.007843,-0.023529,-0.007843,-1.960784,-1.960784,-1.960784,3
-2.823529,0,-52.235294,-0.007843,-0.023529,-0.007843,-1.960784,-1.960784,-1.960784,3
-2.823529,0,-52.235294,-0.007843,-0.023529,-0.007843,-1.960784,-1.960784,-1.960784,3
-2.823529,0,-52.235294,-0.007843,-0.023529,-0.007843,-1.960784,-1.960784,-1.960784,3
-2.823529,0,-52.235294,-0.007843,-0.023529,-0.007843,-1.960784,-1.960784,-1.960784,3
-2.823529,0,-52.235294,-0.007843,-0.023529,-0.007843,-1.960784,-1.960784,-1.960784,3
-2.823529,0,-52.235294,-0.023529,-0.023529,-0.007843,-1.960784,-1.960784,-1.960784,3
-2.823529,0,-52.235294,-0.023529,-0.023529,-0.007843,-1.960784,-1.960784,-1.960784,3
-2.823529,0,-52.235294,-0.007843,-0.023529,-0.007843,-1.960784,-1.960784,-1.960784,3
-2.823529,0,-52.235294,-0.023529,-0.023529,-0.007843,-1.960784,-1.960784,-1.960784,3
-2.823529,0,-52.235294,-0.007843,-0.023529,-0.007843,-1.960784,-1.960784,-1.960784,3
-2.823529,0,-52.235294,-0.007843,-0.023529,-0.007843,-1.960784,-1.960784,-1.960784,3
-2.823529,0,-53.647059,-0.007843,-0.023529,-0.007843,-1.960784,-1.960784,-1.960784,3
-2.823529,0,-53.647059,-0.007843,-0.023529,-0.007843,-1.960784,-1.960784,-1.960784,3
-2.823529,0,-53.647059,-0.007843,-0.023529,-0.007843,-1.960784,-1.960784,-1.960784,3
-2.823529,0,-53.647059,-0.007843,-0.023529,-0.007843,-1.960784,-1.960784,-1.960784,3
-2.823529,0,-53.647059,-0.007843,-0.023529,-0.007843,-1.960784,-1.960784,-1.960784,3
-2.823529,0,-53.647059,-0.007843,-0.023529,-0.007843,-1.960784,-1.960784,-1.960784,3
-2.823529,0,-53.647059,-0.023529,-0.023529,-0.007843,-1.960784,-1.960784,-1.960784,3
-2.823529,0,-53.647059,-0.023529,-0.023529,-0.007843,-1.960784,-1.960784,-1.960784,3
-2.823529,0,-53.647059,-0.007843,-0.023529,-0.007843,-1.960784,-1.960784,-1.960784,3
-2.823529,0,-53.647059,-0.023529,-0.023529,-0.007843,-1.960784,-1.960784,-1.960784,3
-2.823529,0,-53.647059,-0.007843,-0.023529,-0.007843,-1.960784,-1.960784,-1.960784,3
-2.823529,0,-53.647059,-0.007843,-0.023529,-0.007843,-1.960784,-1.960784,-1.960784,3
-2.823529,0,-53.647059,-0.007843,-0.023529,-0.007843,-1.960784,-1.960784,-1.960784,3
-2.823529,0,-53.647059,-0.007843,-0.023529,-0.007843,-1.960784,-1.960784,-1.960784,3
-2.823529,0,-53.647059,-0.023529,-0.023529,-0.007843,-1.960784,-1.960784,-1.960784,3
-2.823529,0,-53.647059,-0.007843,-0.023529,-0.007843,-1.960784,-1.960784,-1.960784,3
-2.823529,0,-53.647059,-0.007843,-0.023529,-0.007843,-1.960784,-1.960784,-1.960784,3
-2.823529,0,-53.647059,-0.007843,-0.023529,-0.007843,-1.960784,-1.960784,-1.960784,3
-2.823529,0,-53.647059,-0.007843,-0.023529,-0.007843,-1.960784,-1.960784,-1.960784,3
-2.823529,0,-53.647059,-0.007843,-0.023529,-0.007843,-1.960784,-1.960784,-1.960784,3
-2.823529,0,-53.647059,-0.007843,-0.023529,0.007843,-1.960784,-1.960784,-1.960784,3
-2.823529,0,-53.647059,-0.007843,-0.023529,-0.007843,-1.960784,-1.960784,-1.960784,3
-2.823529,0,-53.647059,-0.007843,-0.023529,-0.007843,-1.960784,-1.960784,-1.960784,3
-2.823529,0,-53.647059,-0.007843,-0.023529,-0.007843,-1.960784,-1.960784,-1.960784,3
-2.823529,0,-53.647059,-0.023529,-0.023529,-0.007843,-1.960784,-1.960784,-1.960784,3
-2.823529,0,-53.647059,-0.007843,-0.023529,-0.007843,-1.960784,-1.960784,-1.960784,3
-2.823529,0,-53.647059,-0.023529,-0.023529,-0.007843,-1.960784,-1.960784,-1.960784,3
-2.823529,0,-53.647059,-0.023529,-0.023529,-0.007843,-1.960784,-1.960784,-1.960784,3
-2.823529,0,-53.647059,-0.007843,-0.023529,-0.007843,-1.960784,-1.960784,-1.960784,3
-2.823529,0,-53.647059,-0.007843,-0.023529,-0.007843,-1.960784,-1.960784,-1.960784,3
-2.823529,0,-53.647059,-0.007843,-0.023529,-0.007843,-1.960784,-1.960784,-1.960784,3
-2.823529,0,-53.647059,-0.007843,-0.023529,-0.007843,-1.960784,-1.960784,-1.960784,3
-2.823529,0,-53.647059,-0.007843,-0.023529,-0.007843,-1.960784,-1.960784,-1.960784,3
-2.823529,0,-53.647059,-0.007843,-0.023529,-0.007843,-1.960784,-1.960784,-1.960784,3
-2.823529,0,-53.647059,-0.007843,-0.023529,-0.007843,-1.960784,-1.960784,-1.960784,3
-2.823529,0,-53.647059,-0.007843,-0.023529,-0.007843,-1.960784,-1.960784,-1.960784,3
-2.823529,0,-53.647059,-0.007843,-0.023529,-0.007843,-1.960784,-1.960784,-1.960784,3
-2.823529,0,-53.647059,-0.007843,-0.023529,-0.007843,-1.960784,-1.960784,-1.960784,3
-2.823529,0,-53.647059,-0.007843,-0.023529,-0.007843,-1.960784,-1.960784,-1.960784,3
-2.823529,0,-53.647059,-0.007843,-0.023529,-0.007843,-1.960784,-1.960784,-1.960784,3
-2.823529,0,-53.647059,-0.007843,-0.023529,-0.007843,-1.960784,-1.960784,-1.960784,3
-2.823529,0,-53.647059,-0.007843,-0.023529,-0.007843,-1.960784,-1.960784,-1.960784,3
-2.823529,0,-53.647059,-0.007843,-0.023529,-0.007843,-1.960784,-1.960784,-1.960784,3
-2.823529,0,-53.647059,-0.007843,-0.023529,-0.007843,-1.960784,-1.960784,-1.960784,3
-2.823529,0,-53.647059,-0.007843,-0.023529,-0.007843,-1.960784,-1.960784,-1.960784,3
-2.823529,0,-53.647059,-0.007843,-0.023529,-0.007843,-1.960784,-1.960784,-1.960784,3
-2.823529,0,-53.647059,-0.007843,-0.023529,-0.007843,-1.960784,-1.960784,-1.960784,3
-2.823529,0,-55.058824,-0.007843,-0.023529,-0.007843,-1.960784,-1.960784,-1.960784,3
-2.823529,0,-55.058824,-0.007843,-0.023529,-0.007843,-1.960784,-1.960784,-1.960784,3
-2.823529,0,-55.058824,-0.007843,-0.023529,-0.007843,-1.960784,-1.960784,-1.960784,3
-2.823529,0,-55.058824,-0.023529,-0.023529,-0.007843,-1.960784,-1.960784,-1.960784,3
-2.823529,0,-55.058824,-0.007843,-0.023529,-0.007843,-1.960784,-1.960784,-1.960784,3
-2.823529,0,-55.058824,-0.023529,-0.023529,-0.007843,-1.960784,-1.960784,-1.960784,3
-2.823529,0,-55.058824,-0.023529,-0.023529,-0.007843,-1.960784,-1.960784,-1.960784,3
-2.823529,0,-55.058824,-0.023529,-0.039216,-0.007843,-1.960784,-1.960784,-1.960784,3
-2.823529,0,-55.058824,-0.007843,-0.023529,-0.007843,-1.960784,-1.960784,-1.960784,3
-2.823529,0,-55.058824,-0.007843,-0.023529,-0.007843,-1.960784,-1.960784,-1.960784,3
-2.823529,0,-55.058824,-0.007843,-0.023529,-0.007843,-1.960784,-1.960784,-1.960784,3
-2.823529,0,-55.058824,-0.023529,-0.023529,-0.007843,-1.960784,-1.960784,-1.960784,3
-2.823529,0,-55.058824,-0.007843,-0.023529,-0.007843,-1.960784,-1.960784,-1.960784,3
-2.823529,0,-55.058824,-0.007843,-0.023529,-0.007843,-1.960784,-1.960784,-1.960784,3
-2.823529,0,-55.058824,-0.007843,-0.023529,-0.007843,-1.960784,-1.960784,-1.960784,3
-2.823529,0,-55.058824,-0.007843,-0.023529,-0.007843,-1.960784,-1.960784,-1.960784,3
-2.823529,0,-55.058824,-0.007843,-0.023529,0.007843,-1.960784,-1.960784,-1.960784,3
-2.823529,0,-55.058824,-0.023529,-0.023529,-0.007843,-1.960784,-1.960784,-1.960784,3
-2.823529,0,-55.058824,-0.007843,-0.023529,-0.007843,-1.960784,-1.960784,-1.960784,3
-2.823529,0,-55.058824,-0.007843,-0.023529,-0.007843,-1.960784,-1.960784,-1.960784,3
-2.823529,0,-55.058824,-0.007843,-0.023529,-0.007843,-1.960784,-1.960784,-1.960784,3
-2.823529,0,-55.058824,-0.007843,-0.023529,-0.007843,-1.960784,-1.960784,-1.960784,3
-2.823529,0,-55.058824,-0.007843,-0.023529,-0.007843,-1.960784,-1.960784,-1.960784,3
-2.823529,0,-55.058824,-0.007843,-0.023529,-0.007843,-1.960784,-1.960784,-1.960784,3
-2.823529,0,-55.058824,-0.023529,-0.023529,-0.007843,-1.960784,-1.960784,-1.960784,3
-2.823529,0,-55.058824,-0.007843,-0.023529,-0.007843,-1.960784,-1.960784,-1.960784,3
-2.823529,0,-55.058824,-0.023529,-0.023529,-0.007843,-1.960784,-1.960784,-1.960784,3
-2.823529,0,-55.058824,-0.007843,-0.023529,-0.007843,-1.960784,-1.960784,-1.960784,3
-2.823529,0,-55.058824,-0.007843,-0.023529,-0.007843,-1.960784,-1.960784,-1.960784,3
-2.823529,0,-55.058824,-0.023529,-0.023529,-0.007843,-1.960784,-1.960784,-1.960784,3
-2.823529,0,-55.058824,-0.007843,-0.023529,0.007843,-1.960784,-1.960784,-1.960784,3
-2.823529,0,-55.058824,-0.007843,-0.023529,-0.007843,-1.960784,-1.960784,-1.960784,3
-2.823529,0,-55.058824,-0.007843,-0.023529,-0.007843,-1.960784,-1.960784,-1.960784,3
-2.823529,0,-55.058824,-0.007843,-0.023529,-0.007843,-1.960784,-1.960784,-1.960784,3
-2.823529,0,-55.058824,-0.007843,-0.023529,-0.007843,-1.960784,-1.960784,-1.960784,3
-2.823529,0,-55.058824,-0.023529,-0.023529,-0.007843,-1.960784,-1.960784,-1.960784,3
-2.823529,0,-55.058824,-0.007843,-0.023529,-0.007843,-1.960784,-1.960784,-1.960784,3
-2.823529,0,-55.058824,-0.007843,-0.023529,-0.007843,-1.960784,-1.960784,-1.960784,3
-2.823529,0,-55.058824,-0.007843,-0.039216,-0.007843,-1.960784,-1.960784,-1.960784,3
-2.823529,0,-55.058824,-0.007843,-0.023529,-0.007843,-1.960784,-1.960784,-1.960784,3
-2.823529,0,-55.058824,-0.023529,-0.023529,-0.007843,-1.960784,-1.960784,-1.960784,3
-2.823529,0,-55.058824,-0.007843,-0.023529,-0.007843,-1.960784,-1.960784,-1.960784,3
-2.823529,0,-55.058824,-0.007843,-0.023529,-0.007843,-1.960784,-1.960784,-1.960784,3
-2.823529,0,-55.058824,-0.023529,-0.023529,-0.007843,-1.960784,-1.960784,-1.960784,3
-2.823529,0,-55.058824,-0.007843,-0.023529,0.007843,-1.960784,-1.960784,-1.960784,3
-2.823529,0,-55.058824,-0.023529,-0.023529,-0.007843,-1.960784,-1.960784,-1.960784,3
-2.823529,0,-55.058824,-0.007843,-0.023529,0.007843,-1.960784,-1.960784,-1.960784,3
-2.823529,0,-55.058824,-0.007843,-0.023529,-0.007843,-1.960784,-1.960784,-1.960784,3
-2.823529,0,-56.470588,-0.007843,-0.023529,-0.007843,-1.960784,-1.960784,-1.960784,3
-2.823529,0,-56.470588,-0.007843,-0.023529,-0.007843,-1.960784,-1.960784,-1.960784,3
-2.823529,0,-56.470588,-0.023529,-0.023529,-0.007843,-1.960784,-1.960784,-1.960784,3
-2.823529,0,-56.470588,-0.007843,-0.023529,-0.007843,-1.960784,-1.960784,-1.960784,3
-2.823529,0,-56.470588,-0.007843,-0.023529,-0.007843,-1.960784,-1.960784,-1.960784,3
-2.823529,0,-56.470588,-0.007843,-0.023529,-0.007843,-1.960784,-1.960784,-1.960784,3
-2.823529,0,-56.470588,-0.007843,-0.023529,-0.007843,-1.960784,-1.960784,-1.960784,3
-2.823529,0,-56.470588,-0.007843,-0.023529,-0.007843,-1.960784,-1.960784,-1.960784,3
-2.823529,0,-56.470588,-0.007843,-0.023529,-0.007843,-1.960784,-1.960784,-1.960784,3
-2.823529,0,-56.470588,-0.007843,-0.023529,-0.007843,-1.960784,-1.960784,-1.960784,3
-2.823529,0,-56.470588,-0.007843,-0.023529,0.007843,-1.960784,-1.960784,-1.960784,3
-2.823529,0,-56.470588,-0.007843,-0.023529,-0.007843,-1.960784,-1.960784,-1.960784,3
-2.823529,0,-56.470588,-0.007843,-0.023529,-0.007843,-1.960784,-1.960784,-1.960784,3
-2.823529,0,-56.470588,-0.023529,-0.023529,-0.007843,-1.960784,-1.960784,-1.960784,3
-2.823529,0,-56.470588,-0.007843,-0.023529,-0.007843,-1.960784,-1.960784,-1.960784,3
-2.823529,0,-56.470588,-0.007843,-0.023529,-0.007843,-1.960784,-1.960784,-1.960784,3
-2.823529,0,-56.470588,-0.007843,-0.023529,-0.007843,-1.960784,-1.960784,-1.960784,3
-2.823529,0,-56.470588,-0.007843,-0.023529,-0.007843,-1.960784,-1.960784,-1.960784,3
-2.823529,0,-56.470588,-0.007843,-0.023529,-0.007843,-1.960784,-1.960784,-1.960784,3
-2.823529,0,-56.470588,-0.007843,-0.023529,-0.007843,-1.960784,-1.960784,-1.960784,3
-2.823529,0,-56.470588,-0.007843,-0.023529,-0.007843,-1.960784,-1.960784,-1.960784,3
-2.823529,0,-56.470588,-0.023529,-0.023529,-0.007843,-1.960784,-1.960784,-1.960784,3
-2.823529,0,-56.470588,-0.007843,-0.023529,-0.007843,-1.960784,-1.960784,-1.960784,3
-2.823529,0,-56.470588,-0.023529,-0.023529,-0.007843,-1.960784,-1.960784,-1.960784,3
-2.823529,0,-56.470588,-0.007843,-0.023529,-0.007843,-1.960784,-1.960784,-1.960784,3
-2.823529,0,-56.470588,-0.007843,-0.023529,-0.007843,-1.960784,-1.960784,-1.960784,3
-2.823529,0,-56.470588,-0.023529,-0.023529,-0.007843,-1.960784,-1.960784,-1.960784,3
-2.823529,0,-56.470588,-0.007843,-0.023529,-0.007843,-1.960784,-1.960784,-1.960784,3
-2.823529,0,-56.470588,-0.023529,-0.023529,-0.007843,-1.960784,-1.960784,-1.960784,3
-2.823529,0,-56.470588,-0.007843,-0.023529,0.007843,-1.960784,-1.960784,-1.960784,3
-2.823529,0,-56.470588,-0.007843,-0.023529,-0.007843,-1.960784,-1.960784,-1.960784,3
-2.823529,0,-56.470588,-0.023529,-0.023529,-0.007843,-1.960784,-1.960784,-1.960784,3
-2.823529,0,-56.470588,-0.007843,-0.023529,-0.007843,-1.960784,-1.960784,-1.960784,3
-2.823529,0,-56.470588,-0.007843,-0.023529,-0.007843,-1.960784,-1.960784,-1.960784,3
-2.823529,0,-56.470588,-0.007843,-0.023529,-0.007843,-1.960784,-1.960784,-1.960784,3
-2.823529,0,-56.470588,-0.007843,-0.023529,-0.007843,-1.960784,-1.960784,-1.960784,3
-2.823529,0,-56.470588,-0.023529,-0.023529,-0.007843,-1.960784,-1.960784,-1.960784,3
-2.823529,0,-56.470588,-0.007843,-0.023529,-0.007843,-1.960784,-1.960784,-1.960784,3
-2.823529,0,-56.470588,-0.023529,-0.023529,-0.007843,-1.960784,-1.960784,-1.960784,3
-2.823529,0,-56.470588,-0.007843,-0.023529,-0.007843,-1.960784,-1.960784,-1.960784,3
-2.823529,0,-56.470588,-0.007843,-0.023529,-0.007843,-1.960784,-1.960784,-1.960784,3
-2.823529,0,-56.470588,-0.023529,-0.023529,-0.007843,-1.960784,-1.960784,-1.960784,3
-2.823529,0,-56.470588,-0.007843,-0.023529,-0.007843,-1.960784,-1.960784,-1.960784,3
-2.823529,0,-56.470588,-0.007843,-0.023529,-0.007843,-1.960784,-1.960784,-1.960784,3
-2.823529,0,-56.470588,-0.007843,-0.023529,-0.007843,-1.960784,-1.960784,-1.960784,3
-2.823529,0,-56.470588,-0.007843,-0.023529,-0.007843,-1.960784,-1.960784,-1.960784,3
-2.823529,0,-56.470588,-0.007843,-0.023529,-0.007843,-1.960784,-1.960784,-1.960784,3
-2.823529,0,-56.470588,-0.007843,-0.023529,-0.007843,-1.960784,-1.960784,-1.960784,3
-2.823529,0,-56.470588,-0.007843,-0.023529,-0.007843,-1.960784,-1.960784,-1.960784,3
-2.823529,0,-57.882353,-0.023529,-0.023529,-0.007843,-1.960784,-1.960784,-1.960784,3
-2.823529,0,-57.882353,-0.007843,-0.023529,-0.007843,-1.960784,-1.960784,-1.960784,3
-2.823529,0,-57.882353,-0.023529,-0.023529,-0.007843,-1.960784,-1.960784,-1.960784,3
-2.823529,0,-57.882353,-0.007843,-0.023529,-0.007843,-1.960784,-1.960784,-1.960784,3
-2.823529,0,-57.882353,-0.007843,-0.023529,-0.007843,-1.960784,-1.960784,-1.960784,3
-2.823529,0,-57.882353,-0.023529,-0.023529,-0.007843,-1.960784,-1.960784,-1.960784,3
-2.823529,0,-57.882353,-0.023529,-0.023529,-0.007843,-1.960784,-1.960784,-1.960784,3
-2.823529,0,-57.882353,-0.023529,-0.023529,-0.007843,-1.960784,-1.960784,-1.960784,3
-2.823529,0,-57.882353,-0.007843,-0.023529,-0.007843,-1.960784,-1.960784,-1.960784,3
-2.823529,0,-57.882353,-0.023529,-0.023529,-0.007843,-1.960784,-1.960784,-1.960784,3
-2.823529,0,-57.882353,-0.023529,-0.023529,-0.007843,-1.960784,-1.960784,-1.960784,3
-2.823529,0,-57.882353,-0.023529,-0.023529,-0.007843,-1.960784,-1.960784,-1.960784,3
-2.823529,0,-57.882353,-0.007843,-0.023529,-0.007843,-1.960784,-1.960784,-1.960784,3
-2.823529,0,-57.882353,-0.023529,-0.023529,-0.007843,-1.960784,-1.960784,-1.960784,3
-2.823529,0,-57.882353,-0.023529,-0.023529,-0.007843,-1.960784,-1.960784,-1.960784,3
-2.823529,0,-57.882353,-0.007843,-0.023529,-0.007843,-1.960784,-1.960784,-1.960784,3
-2.823529,0,-57.882353,-0.007843,-0.023529,-0.007843,-1.960784,-1.960784,-1.960784,3
-2.823529,0,-57.882353,-0.007843,-0.023529,-0.007843,-1.960784,-1.960784,-1.960784,3
-2.823529,0,-57.882353,-0.007843,-0.023529,-0.007843,-1.960784,-1.960784,-1.960784,3
-2.823529,0,-57.882353,-0.007843,-0.023529,-0.007843,-1.960784,-1.960784,-1.960784,3
-2.823529,0,-57.882353,-0.007843,-0.023529,-0.007843,-1.960784,-1.960784,-1.960784,3
-2.823529,0,-57.882353,-0.023529,-0.023529,-0.007843,-1.960784,-1.960784,-1.960784,3
-2.823529,0,-57.882353,-0.007843,-0.023529,-0.007843,-1.960784,-1.960784,-1.960784,3
-2.823529,0,-57.882353,-0.007843,-0.023529,-0.007843,-1.960784,-1.960784,-1.960784,3
-2.823529,0,-57.882353,-0.007843,-0.023529,-0.007843,-1.960784,-1.960784,-1.960784,3
-2.823529,0,-57.882353,-0.007843,-0.023529,-0.007843,-1.960784,-1.960784,-1.960784,3
-2.823529,0,-57.882353,-0.007843,-0.023529,-0.007843,-1.960784,-1.960784,-1.960784,3
-2.823529,0,-57.882353,-0.007843,-0.023529,-0.007843,-1.960784,-1.960784,-1.960784,3
-2.823529,0,-57.882353,-0.007843,-0.023529,-0.007843,-1.960784,-1.960784,-1.960784,3
-2.823529,0,-57.882353,-0.023529,-0.023529,-0.007843,-1.960784,-1.960784,-1.960784,3
-2.823529,0,-57.882353,-0.007843,-0.023529,-0.007843,-1.960784,-1.960784,-1.960784,3
-2.823529,0,-57.882353,-0.023529,-0.023529,-0.007843,-1.960784,-1.960784,-1.960784,3
-2.823529,0,-57.882353,-0.007843,-0.023529,-0.007843,-1.960784,-1.960784,-1.960784,3
-2.823529,0,-57.882353,-0.007843,-0.023529,-0.007843,-1.960784,-1.960784,-1.960784,3
-2.823529,0,-57.882353,-0.007843,-0.023529,-0.007843,-1.960784,-1.960784,-1.960784,3
-2.823529,0,-57.882353,-0.007843,-0.023529,-0.007843,-1.960784,-1.960784,-1.960784,3
-2.823529,0,-57.882353,-0.007843,-0.023529,-0.007843,-1.960784,-1.960784,-1.960784,3
-2.823529,0,-57.882353,-0.007843,-0.023529,-0.007843,-1.960784,-1.960784,-1.960784,3
-2.823529,0,-57.882353,-0.007843,-0.023529,-0.007843,-1.960784,-1.960784,-1.960784,3
-2.823529,0,-57.882353,-0.007843,-0.023529,-0.007843,-1.960784,-1.960784,-1.960784,3
-2.823529,0,-57.882353,-0.007843,-0.023529,-0.007843,-1.960784,-1.960784,-1.960784,3
-2.823529,0,-57.882353,-0.007843,-0.023529,-0.007843,-1.960784,-1.960784,-1.960784,3
-2.823529,0,-57.882353,-0.007843,-0.023529,-0.007843,-1.960784,-1.960784,-1.960784,3
-2.823529,0,-57.882353,-0.007843,-0.023529,-0.007843,-1.960784,-1.960784,-1.960784,3
-2.823529,0,-57.882353,-0.007843,-0.023529,-0.007843,-1.960784,-1.960784,-1.960784,3
-2.823529,0,-59.294118,-0.007843,-0.023529,-0.007843,-1.960784,-1.960784,-1.960784,3
-2.823529,0,-59.294118,-0.007843,-0.023529,-0.007843,-1.960784,-1.960784,-1.960784,3
-2.823529,0,-59.294118,-0.007843,-0.023529,-0.007843,-1.960784,-1.960784,-1.960784,3
-2.823529,0,-59.294118,-0.007843,-0.023529,-0.007843,-1.960784,-1.960784,-1.960784,3
-2.823529,0,-59.294118,-0.007843,-0.023529,-0.007843,-1.960784,-1.960784,-1.960784,3
-2.823529,0,-59.294118,-0.007843,-0.023529,-0.007843,-1.960784,-1.960784,-1.960784,3
-2.823529,0,-59.294118,-0.007843,-0.023529,-0.007843,-1.960784,-1.960784,-1.960784,3
-2.823529,0,-59.294118,-0.007843,-0.023529,-0.007843,-1.960784,-1.960784,-1.960784,3
-2.823529,0,-59.294118,-0.007843,-0.023529,-0.007843,-1.960784,-1.960784,-1.960784,3
-2.823529,0,-59.294118,-0.007843,-0.023529,-0.007843,-1.960784,-1.960784,-1.960784,3
-2.823529,0,-59.294118,-0.023529,-0.023529,-0.007843,-1.960784,-1.960784,-1.960784,3
-2.823529,0,-59.294118,-0.023529,-0.023529,-0.007843,-1.960784,-1.960784,-1.960784,3
-2.823529,0,-59.294118,-0.007843,-0.039216,-0.007843,-1.960784,-1.960784,-1.960784,3
-2.823529,0,-59.294118,-0.007843,-0.023529,-0.007843,-1.960784,-1.960784,-1.960784,3
-2.823529,0,-59.294118,-0.007843,-0.023529,-0.007843,-1.960784,-1.960784,-1.960784,3
-2.823529,0,-59.294118,-0.007843,-0.023529,-0.007843,-1.960784,-1.960784,-1.960784,3
-2.823529,0,-59.294118,-0.007843,-0.023529,-0.007843,-1.960784,-1.960784,-1.960784,3
-2.823529,0,-59.294118,-0.007843,-0.023529,-0.007843,-1.960784,-1.960784,-1.960784,3
-2.823529,0,-59.294118,-0.023529,-0.023529,-0.007843,-1.960784,-1.960784,-1.960784,3
-2.823529,0,-59.294118,-0.007843,-0.023529,-0.007843,-1.960784,-1.960784,-1.960784,3
-2.823529,0,-59.294118,-0.007843,-0.023529,-0.007843,-1.960784,-1.960784,-1.960784,3
-2.823529,0,-59.294118,-0.007843,-0.023529,-0.007843,-1.960784,-1.960784,-1.960784,3
-2.823529,0,-59.294118,-0.007843,-0.023529,-0.007843,-1.960784,-1.960784,-1.960784,3
-2.823529,0,-59.294118,-0.007843,-0.023529,-0.007843,-1.960784,-1.960784,-1.960784,3
-2.823529,0,-59.294118,-0.007843,-0.023529,-0.007843,-1.960784,-1.960784,-1.960784,3
-2.823529,0,-59.294118,-0.007843,-0.023529,-0.007843,-1.960784,-1.960784,-1.960784,3
-2.823529,0,-59.294118,-0.007843,-0.023529,-0.007843,-1.960784,-1.960784,-1.960784,3
-2.823529,0,-59.294118,-0.007843,-0.023529,-0.007843,-1.960784,-1.960784,-1.960784,3
-2.823529,0,-59.294118,-0.007843,-0.023529,-0.007843,-1.960784,-1.960784,-1.960784,3
-2.823529,0,-59.294118,-0.007843,-0.023529,-0.007843,-1.960784,-1.960784,-1.960784,3
-2.823529,0,-59.294118,-0.023529,-0.023529,-0.007843,-1.960784,-1.960784,-1.960784,3
-2.823529,0,-59.294118,-0.007843,-0.023529,-0.007843,-1.960784,-1.960784,-1.960784,3
-2.823529,0,-59.294118,-0.007843,-0.023529,-0.007843,-1.960784,-1.960784,-1.960784,3
-2.823529,0,-59.294118,-0.007843,-0.023529,-0.007843,-1.960784,-1.960784,-1.960784,3
-2.823529,0,-59.294118,-0.007843,-0.023529,-0.007843,-1.960784,-1.960784,-1.960784,3
-2.823529,0,-59.294118,-0.007843,-0.023529,-0.007843,-1.960784,-1.960784,-1.960784,3
-2.823529,0,-59.294118,-0.007843,-0.023529,-0.007843,-1.960784,-1.960784,-1.960784,3
-2.823529,0,-59.294118,-0.007843,-0.039216,-0.007843,-1.960784,-1.960784,-1.960784,3
-2.823529,0,-59.294118,-0.023529,-0.023529,-0.007843,-1.960784,-1.960784,-1.960784,3
-2.823529,0,-59.294118,-0.023529,-0.023529,-0.007843,-1.960784,-1.960784,-1.960784,3
-2.823529,0,-59.294118,-0.007843,-0.023529,-0.007843,-1.960784,-1.960784,-1.960784,3
-2.823529,0,-59.294118,-0.023529,-0.023529,-0.007843,-1.960784,-1.960784,-1.960784,3
-2.823529,0,-59.294118,-0.007843,-0.023529,-0.007843,-1.960784,-1.960784,-1.960784,3
-2.823529,0,-59.294118,-0.007843,-0.023529,-0.007843,-1.960784,-1.960784,-1.960784,3
-2.823529,0,-59.294118,-0.007843,-0.023529,-0.007843,-1.960784,-1.960784,-1.960784,3
-2.823529,0,-59.294118,-0.007843,-0.023529,-0.007843,-1.960784,-1.960784,-1.960784,3
-2.823529,0,-59.294118,-0.007843,-0.039216,-0.007843,-1.960784,-1.960784,-1.960784,3
-2.823529,0,-59.294118,-0.007843,-0.023529,-0.007843,-1.960784,-1.960784,-1.960784,3
-2.823529,0,-60.705882,-0.023529,-0.039216,-0.007843,-1.960784,-1.960784,-1.960784,3
-2.823529,0,-60.705882,-0.007843,-0.023529,-0.007843,-1.960784,-1.960784,-1.960784,3
-2.823529,0,-60.705882,-0.007843,-0.023529,-0.007843,-1.960784,-1.960784,-1.960784,3
-2.823529,0,-60.705882,-0.023529,-0.023529,-0.007843,-1.960784,-1.960784,-1.960784,3
-2.823529,0,-60.705882,-0.023529,-0.023529,-0.007843,-1.960784,-1.960784,-1.960784,3
-2.823529,0,-60.705882,-0.023529,-0.023529,-0.007843,-1.960784,-1.960784,-1.960784,3
-2.823529,0,-60.705882,-0.007843,-0.023529,-0.007843,-1.960784,-1.960784,-1.960784,3
-2.823529,0,-60.705882,-0.007843,-0.023529,-0.007843,-1.960784,-1.960784,-1.960784,3
-2.823529,0,-60.705882,-0.007843,-0.023529,-0.007843,-1.960784,-1.960784,-1.960784,3
-2.823529,0,-60.705882,-0.007843,-0.023529,-0.007843,-1.960784,-1.960784,-1.960784,3
-2.823529,0,-60.705882,-0.007843,-0.023529,-0.007843,-1.960784,-1.960784,-1.960784,3
-2.823529,0,-60.705882,-0.007843,-0.023529,-0.007843,-1.960784,-1.960784,-1.960784,3
-2.823529,0,-60.705882,-0.007843,-0.023529,-0.007843,-1.960784,-1.960784,-1.960784,3
-2.823529,0,-60.705882,-0.007843,-0.023529,-0.007843,-1.960784,-1.960784,-1.960784,3
-2.823529,0,-60.705882,-0.007843,-0.023529,-0.007843,-1.960784,-1.960784,-1.960784,3
-2.823529,0,-60.705882,-0.023529,-0.023529,-0.007843,-1.960784,-1.960784,-1.960784,3
-2.823529,0,-60.705882,-0.023529,-0.023529,-0.007843,-1.960784,-1.960784,-1.960784,3
-2.823529,0,-60.705882,-0.007843,-0.023529,-0.007843,-1.960784,-1.960784,-1.960784,3
-2.823529,0,-60.705882,-0.007843,-0.023529,-0.007843,-1.960784,-1.960784,-1.960784,3
-2.823529,0,-60.705882,-0.007843,-0.023529,0.007843,-1.960784,-1.960784,-1.960784,3
-2.823529,0,-60.705882,-0.007843,-0.023529,-0.007843,-1.960784,-1.960784,-1.960784,3
-2.823529,0,-60.705882,-0.007843,-0.039216,-0.007843,-1.960784,-1.960784,-1.960784,3
-2.823529,0,-60.705882,-0.007843,-0.023529,-0.007843,-1.960784,-1.960784,-1.960784,3
-2.823529,0,-60.705882,-0.023529,-0.023529,-0.007843,-1.960784,-1.960784,-1.960784,3
-2.823529,0,-60.705882,-0.007843,-0.023529,-0.007843,-1.960784,-1.960784,-1.960784,3
-2.823529,0,-60.705882,-0.007843,-0.023529,-0.007843,-1.960784,-1.960784,-1.960784,3
-2.823529,0,-60.705882,-0.007843,-0.023529,-0.007843,-1.960784,-1.960784,-1.960784,3
-2.823529,0,-60.705882,-0.007843,-0.023529,-0.007843,-1.960784,-1.960784,-1.960784,3
-2.823529,0,-60.705882,-0.007843,-0.023529,-0.007843,-1.960784,-1.960784,-1.960784,3
-2.823529,0,-60.705882,-0.007843,-0.023529,-0.007843,-1.960784,-1.960784,-1.960784,3
-2.823529,0,-60.705882,-0.007843,-0.023529,-0.007843,-1.960784,-1.960784,-1.960784,3
-2.823529,0,-60.705882,-0.023529,-0.023529,-0.007843,-1.960784,-1.960784,-1.960784,3
-2.823529,0,-60.705882,-0.007843,-0.023529,-0.007843,-1.960784,-1.960784,-1.960784,3
-2.823529,0,-60.705882,-0.007843,-0.023529,-0.007843,-1.960784,-1.960784,-1.960784,3
-2.823529,0,-60.705882,-0.007843,-0.023529,-0.007843,-1.960784,-1.960784,-1.960784,3
-2.823529,0,-60.705882,-0.007843,-0.023529,-0.007843,-1.960784,-1.960784,-1.960784,3
-2.823529,0,-60.705882,-0.023529,-0.023529,-0.007843,-1.960784,-1.960784,-1.960784,3
-2.823529,0,-60.705882,-0.007843,-0.023529,-0.007843,-1.960784,-1.960784,-1.960784,3
-2.823529,0,-60.705882,-0.007843,-0.023529,-0.007843,-1.960784,-1.960784,-1.960784,3
-2.823529,0,-60.705882,-0.007843,-0.023529,-0.007843,-1.960784,-1.960784,-1.960784,3
-2.823529,0,-60.705882,-0.007843,-0.023529,-0.007843,-1.960784,-1.960784,-1.960784,3
-2.823529,0,-60.705882,-0.007843,-0.023529,-0.007843,-1.960784,-1.960784,-1.960784,3
-2.823529,0,-60.705882,-0.007843,-0.023529,-0.007843,-1.960784,-1.960784,-1.960784,3
-2.823529,0,-60.705882,-0.007843,-0.023529,-0.007843,-1.960784,-1.960784,-1.960784,3
-2.823529,0,-60.705882,-0.007843,-0.023529,-0.007843,-1.960784,-1.960784,-1.960784,3
-2.823529,0,-62.117647,-0.007843,-0.023529,-0.007843,-1.960784,-1.960784,-1.960784,3
-2.823529,0,-62.117647,-0.023529,-0.023529,-0.007843,-1.960784,-1.960784,-1.960784,3
-2.823529,0,-62.117647,-0.023529,-0.023529,-0.007843,-1.960784,-1.960784,-1.960784,3
-2.823529,0,-62.117647,-0.007843,-0.023529,-0.007843,-1.960784,-1.960784,-1.960784,3
-2.823529,0,-62.117647,-0.007843,-0.023529,-0.007843,-1.960784,-1.960784,-1.960784,3
-2.823529,0,-62.117647,-0.007843,-0.023529,-0.007843,-1.960784,-1.960784,-1.960784,3
-2.823529,0,-62.117647,-0.007843,-0.023529,-0.007843,-1.960784,-1.960784,-1.960784,3
-2.823529,0,-62.117647,-0.007843,-0.023529,-0.007843,-1.960784,-1.960784,-1.960784,3
-2.823529,0,-62.117647,-0.007843,-0.023529,-0.007843,-1.960784,-1.960784,-1.960784,3
-2.823529,0,-62.117647,-0.007843,-0.023529,-0.007843,-1.960784,-1.960784,-1.960784,3
-2.823529,0,-62.117647,-0.007843,-0.023529,-0.007843,-1.960784,-1.960784,-1.960784,3
-2.823529,0,-62.117647,-0.007843,-0.023529,-0.007843,-1.960784,-1.960784,-1.960784,3
-2.823529,0,-62.117647,-0.007843,-0.023529,-0.007843,-1.960784,-1.960784,-1.960784,3
-2.823529,0,-62.117647,-0.023529,-0.023529,-0.007843,-1.960784,-1.960784,-1.960784,3
-2.823529,0,-62.117647,-0.007843,-0.023529,-0.007843,-1.960784,-1.960784,-1.960784,3
-2.823529,0,-62.117647,-0.007843,-0.023529,-0.007843,-1.960784,-1.960784,-1.960784,3
-2.823529,0,-62.117647,-0.007843,-0.023529,-0.007843,-1.960784,-1.960784,-1.960784,3
-2.823529,0,-62.117647,-0.007843,-0.039216,0.007843,-1.960784,-1.960784,-1.960784,3
-2.823529,0,-62.117647,-0.007843,-0.023529,0.007843,-1.960784,-1.960784,-1.960784,3
-2.823529,0,-62.117647,-0.007843,-0.023529,-0.007843,-1.960784,-1.960784,-1.960784,3
-2.823529,0,-62.117647,-0.007843,-0.023529,-0.007843,-1.960784,-1.960784,-1.960784,3
-2.823529,0,-62.117647,-0.023529,-0.023529,-0.007843,-1.960784,-1.960784,-1.960784,3
-2.823529,0,-62.117647,-0.007843,-0.023529,-0.007843,-1.960784,-1.960784,-1.960784,3
-2.823529,0,-62.117647,-0.007843,-0.023529,-0.007843,-1.960784,-1.960784,-1.960784,3
-2.823529,0,-62.117647,-0.007843,-0.023529,-0.007843,-1.960784,-1.960784,-1.960784,3
-2.823529,0,-62.117647,-0.007843,-0.023529,-0.007843,-1.960784,-1.960784,-1.960784,3
-2.823529,0,-62.117647,-0.007843,-0.023529,-0.007843,-1.960784,-1.960784,-1.960784,3
-2.823529,0,-62.117647,-0.023529,-0.023529,-0.007843,-1.960784,-1.960784,-1.960784,3
-2.823529,0,-62.117647,-0.007843,-0.023529,-0.007843,-1.960784,-1.960784,-1.960784,3
-2.823529,0,-62.117647,-0.023529,-0.023529,-0.007843,-1.960784,-1.960784,-1.960784,3
-2.823529,0,-62.117647,-0.007843,-0.023529,-0.007843,-1.960784,-1.960784,-1.960784,3
-2.823529,0,-62.117647,-0.023529,-0.023529,-0.007843,-1.960784,-1.960784,-1.960784,3
-2.823529,0,-62.117647,-0.007843,-0.023529,0.007843,-1.960784,-1.960784,-1.960784,3
-2.823529,0,-62.117647,-0.007843,-0.023529,-0.007843,-1.960784,-1.960784,-1.960784,3
-2.823529,0,-62.117647,-0.023529,-0.023529,-0.007843,-1.960784,-1.960784,-1.960784,3
-2.823529,0,-62.117647,-0.007843,-0.023529,-0.007843,-1.960784,-1.960784,-1.960784,3
-2.823529,0,-62.117647,-0.023529,-0.023529,-0.007843,-1.960784,-1.960784,-1.960784,3
-2.823529,0,-62.117647,-0.023529,-0.023529,-0.007843,-1.960784,-1.960784,-1.960784,3
-2.823529,0,-62.117647,-0.023529,-0.023529,-0.007843,-1.960784,-1.960784,-1.960784,3
-2.823529,0,-62.117647,-0.007843,-0.023529,-0.007843,-1.960784,-1.960784,-1.960784,3
-2.823529,0,-62.117647,-0.023529,-0.023529,-0.007843,-1.960784,-1.960784,-1.960784,3
-2.823529,0,-62.117647,-0.007843,-0.023529,-0.007843,-1.960784,-1.960784,-1.960784,3
-2.823529,0,-62.117647,-0.007843,-0.023529,-0.007843,-1.960784,-1.960784,-1.960784,3
-2.823529,0,-62.117647,-0.007843,-0.023529,-0.007843,-1.960784,-1.960784,-1.960784,3
-2.823529,0,-62.117647,-0.007843,-0.023529,0.007843,-1.960784,-1.960784,-1.960784,3
-2.823529,0,-62.117647,-0.007843,-0.023529,-0.007843,-1.960784,-1.960784,-1.960784,3
-2.823529,0,-62.117647,-0.007843,-0.023529,0.007843,-1.960784,-1.960784,-1.960784,3
-2.823529,0,-62.117647,-0.007843,-0.023529,-0.007843,-1.960784,-1.960784,-1.960784,3
-2.823529,0,-63.529412,-0.007843,-0.039216,0.007843,-1.960784,-1.960784,-1.960784,3
-2.823529,0,-63.529412,-0.007843,-0.023529,-0.007843,-1.960784,-1.960784,-1.960784,3
-2.823529,0,-63.529412,-0.007843,-0.023529,-0.007843,-1.960784,-1.960784,-1.960784,3
-2.823529,0,-63.529412,-0.007843,-0.023529,-0.007843,-1.960784,-1.960784,-1.960784,3
-2.823529,0,-63.529412,-0.007843,-0.023529,-0.007843,-1.960784,-1.960784,-1.960784,3
-2.823529,0,-63.529412,-0.007843,-0.023529,-0.007843,-1.960784,-1.960784,-1.960784,3
-2.823529,0,-63.529412,-0.007843,-0.023529,-0.007843,-1.960784,-1.960784,-1.960784,3
-2.823529,0,-63.529412,-0.007843,-0.023529,0.007843,-1.960784,-1.960784,-1.960784,3
-2.823529,0,-63.529412,-0.007843,-0.023529,-0.007843,-1.960784,-1.960784,-1.960784,3
-2.823529,0,-63.529412,-0.023529,-0.023529,-0.007843,-1.960784,-1.960784,-1.960784,3
-2.823529,0,-63.529412,-0.007843,-0.023529,-0.007843,-1.960784,-1.960784,-1.960784,3
-2.823529,0,-63.529412,-0.023529,-0.023529,0.007843,-1.960784,-1.960784,-1.960784,3
-2.823529,0,-63.529412,-0.007843,-0.023529,-0.007843,-1.960784,-1.960784,-1.960784,3
-2.823529,0,-63.529412,-0.007843,-0.023529,-0.007843,-1.960784,-1.960784,-1.960784,3
-2.823529,0,-63.529412,-0.023529,-0.023529,-0.039216,-1.960784,-1.960784,-1.960784,3
-2.823529,0,-63.529412,-0.007843,-0.023529,0.007843,-1.960784,-1.960784,-1.960784,3
-2.823529,0,-63.529412,-0.007843,-0.023529,-0.007843,-1.960784,-1.960784,-1.960784,3
-2.823529,0,-63.529412,-0.007843,-0.023529,-0.007843,-1.960784,-1.960784,-1.960784,3
-2.823529,0,-63.529412,-0.023529,-0.023529,-0.007843,-1.960784,-1.960784,-1.960784,3
-2.823529,0,-63.529412,-0.007843,-0.023529,-0.007843,-1.960784,-1.960784,-1.960784,3
-2.823529,0,-63.529412,-0.007843,-0.023529,-0.007843,-1.960784,-1.960784,-1.960784,3
-2.823529,0,-63.529412,-0.023529,-0.023529,-0.007843,-1.960784,-1.960784,-1.960784,3
-2.823529,0,-63.529412,-0.007843,-0.023529,-0.007843,-1.960784,-1.960784,-1.960784,3
-2.823529,0,-63.529412,-0.007843,-0.023529,-0.007843,-1.960784,-1.960784,-1.960784,3
-2.823529,0,-63.529412,-0.023529,-0.023529,-0.007843,-1.960784,-1.960784,-1.960784,3
-2.823529,0,-63.529412,-0.007843,-0.023529,-0.007843,-1.960784,-1.960784,-1.960784,3
-2.823529,0,-63.529412,-0.023529,-0.023529,-0.007843,-1.960784,-1.960784,-1.960784,3
-2.823529,0,-63.529412,-0.007843,-0.023529,-0.007843,-1.960784,-1.960784,-1.960784,3
-2.823529,0,-63.529412,-0.007843,-0.023529,-0.007843,-1.960784,-1.960784,-1.960784,3
-2.823529,0,-63.529412,-0.023529,-0.023529,-0.007843,-1.960784,-1.960784,-1.960784,3
-2.823529,0,-63.529412,-0.007843,-0.023529,0.007843,-1.960784,-1.960784,-1.960784,3
-2.823529,0,-63.529412,-0.007843,-0.039216,-0.007843,-1.960784,-1.960784,-1.960784,3
-2.823529,0,-63.529412,-0.007843,-0.023529,-0.007843,-1.960784,-1.960784,-1.960784,3
-2.823529,0,-63.529412,-0.023529,-0.023529,-0.007843,-1.960784,-1.960784,-1.960784,3
-2.823529,0,-63.529412,-0.007843,-0.023529,-0.007843,-1.960784,-1.960784,-1.960784,3
-2.823529,0,-63.529412,-0.023529,-0.023529,-0.007843,-1.960784,-1.960784,-1.960784,3
-2.823529,0,-63.529412,-0.023529,-0.023529,-0.007843,-1.960784,-1.960784,-1.960784,3
-2.823529,0,-63.529412,-0.007843,-0.023529,-0.007843,-1.960784,-1.960784,-1.960784,3
-2.823529,0,-63.529412,-0.023529,-0.023529,-0.007843,-1.960784,-1.960784,-1.960784,3
-2.823529,0,-63.529412,-0.023529,-0.023529,-0.007843,-1.960784,-1.960784,-1.960784,3
-2.823529,0,-63.529412,-0.007843,-0.023529,0.007843,-1.960784,-1.960784,-1.960784,3
-2.823529,0,-63.529412,-0.023529,-0.023529,-0.007843,-1.960784,-1.960784,-1.960784,3
-2.823529,0,-63.529412,-0.007843,-0.023529,-0.007843,-1.960784,-1.960784,-1.960784,3
-2.823529,0,-63.529412,-0.007843,-0.023529,-0.007843,-1.960784,-1.960784,-1.960784,3
-2.823529,0,-63.529412,-0.007843,-0.023529,-0.007843,-1.960784,-1.960784,-1.960784,3
-2.823529,0,-63.529412,-0.007843,-0.023529,-0.007843,-1.960784,-1.960784,-1.960784,3
-2.823529,0,-63.529412,-0.007843,-0.023529,-0.007843,-1.960784,-1.960784,-1.960784,3
-2.823529,0,-64.941176,-0.007843,-0.023529,-0.007843,-1.960784,-1.960784,-1.960784,3
-2.823529,0,-64.941176,-0.007843,-0.023529,-0.007843,-1.960784,-1.960784,-1.960784,3
-2.823529,0,-64.941176,-0.007843,-0.023529,-0.007843,-1.960784,-1.960784,-1.960784,3
-2.823529,0,-64.941176,-0.007843,-0.023529,-0.007843,-1.960784,-1.960784,-1.960784,3
-2.823529,0,-64.941176,-0.007843,-0.023529,-0.007843,-1.960784,-1.960784,-1.960784,3
-2.823529,0,-64.941176,-0.007843,-0.023529,-0.007843,-1.960784,-1.960784,-1.960784,3
-2.823529,0,-64.941176,-0.023529,-0.023529,-0.007843,-1.960784,-1.960784,-1.960784,3
-2.823529,0,-64.941176,-0.007843,-0.023529,-0.007843,-1.960784,-1.960784,-1.960784,3
-2.823529,0,-64.941176,-0.007843,-0.023529,-0.007843,-1.960784,-1.960784,-1.960784,3
-2.823529,0,-64.941176,-0.007843,-0.023529,-0.007843,-1.960784,-1.960784,-1.960784,3
-2.823529,0,-64.941176,-0.007843,-0.023529,-0.007843,-1.960784,-1.960784,-1.960784,3
-2.823529,0,-64.941176,-0.007843,-0.023529,-0.007843,-1.960784,-1.960784,-1.960784,3
-2.823529,0,-64.941176,-0.023529,-0.023529,-0.007843,-1.960784,-1.960784,-1.960784,3
-2.823529,0,-64.941176,-0.007843,-0.023529,-0.007843,-1.960784,-1.960784,-1.960784,3
-2.823529,0,-64.941176,-0.007843,-0.023529,-0.007843,-1.960784,-1.960784,-1.960784,3
-2.823529,0,-64.941176,-0.007843,-0.023529,-0.007843,-1.960784,-1.960784,-1.960784,3
-2.823529,0,-64.941176,-0.007843,-0.023529,-0.007843,-1.960784,-1.960784,-1.960784,3
-2.823529,0,-64.941176,-0.007843,-0.023529,-0.007843,-1.960784,-1.960784,-1.960784,3
-2.823529,0,-64.941176,-0.007843,-0.023529,-0.007843,-1.960784,-1.960784,-1.960784,3
-2.823529,0,-64.941176,-0.007843,-0.023529,-0.007843,-1.960784,-1.960784,-1.960784,3
-2.823529,0,-64.941176,-0.007843,-0.023529,-0.007843,-1.960784,-1.960784,-1.960784,3
-2.823529,0,-64.941176,-0.023529,-0.023529,-0.007843,-1.960784,-1.960784,-1.960784,3
-2.823529,0,-64.941176,-0.007843,-0.023529,-0.007843,-1.960784,-1.960784,-1.960784,3
-2.823529,0,-64.941176,-0.007843,-0.023529,-0.007843,-1.960784,-1.960784,-1.960784,3
-2.823529,0,-64.941176,-0.007843,-0.023529,-0.007843,-1.960784,-1.960784,-1.960784,3
-2.823529,0,-64.941176,-0.007843,-0.023529,-0.007843,-1.960784,-1.960784,-1.960784,3
-2.823529,0,-64.941176,-0.007843,-0.023529,-0.007843,-1.960784,-1.960784,-1.960784,3
-2.823529,0,-64.941176,-0.007843,-0.023529,0.007843,-1.960784,-1.960784,-1.960784,3
-2.823529,0,-64.941176,-0.007843,-0.023529,-0.007843,-1.960784,-1.960784,-1.960784,3
-2.823529,0,-64.941176,-0.007843,-0.023529,-0.007843,-1.960784,-1.960784,-1.960784,3
-2.823529,0,-64.941176,-0.007843,-0.023529,-0.007843,-1.960784,-1.960784,-1.960784,3
-2.823529,0,-64.941176,-0.023529,-0.023529,-0.007843,-1.960784,-1.960784,-1.960784,3
-2.823529,0,-64.941176,-0.007843,-0.023529,-0.007843,-1.960784,-1.960784,-1.960784,3
-2.823529,0,-64.941176,-0.007843,-0.023529,-0.007843,-1.960784,-1.960784,-1.960784,3
-2.823529,0,-64.941176,-0.007843,-0.023529,-0.007843,-1.960784,-1.960784,-1.960784,3
-2.823529,0,-64.941176,-0.007843,-0.023529,-0.007843,-1.960784,-1.960784,-1.960784,3
-2.823529,0,-64.941176,-0.007843,-0.023529,-0.007843,-1.960784,-1.960784,-1.960784,3
-2.823529,0,-64.941176,-0.023529,-0.023529,-0.007843,-1.960784,-1.960784,-1.960784,3
-2.823529,0,-64.941176,-0.007843,-0.023529,-0.007843,-1.960784,-1.960784,-1.960784,3
-2.823529,0,-64.941176,-0.007843,-0.023529,-0.007843,-1.960784,-1.960784,-1.960784,3
-2.823529,0,-64.941176,-0.023529,-0.023529,-0.007843,-1.960784,-1.960784,-1.960784,3
-2.823529,0,-64.941176,-0.007843,-0.023529,-0.007843,-1.960784,-1.960784,-1.960784,3
-2.823529,0,-64.941176,-0.007843,-0.023529,-0.007843,-1.960784,-1.960784,-1.960784,3
-2.823529,0,-64.941176,-0.007843,-0.023529,-0.007843,-1.960784,-1.960784,-1.960784,3
-2.823529,0,-64.941176,-0.007843,-0.023529,-0.007843,-1.960784,-1.960784,-1.960784,3
-2.823529,0,-64.941176,-0.007843,-0.023529,-0.007843,-1.960784,-1.960784,-1.960784,3
-2.823529,0,-64.941176,-0.023529,-0.023529,-0.007843,-1.960784,-1.960784,-1.960784,3
-2.823529,0,-64.941176,-0.007843,-0.023529,-0.007843,-1.960784,-1.960784,-1.960784,3
-2.823529,0,-66.352941,-0.007843,-0.023529,-0.007843,-1.960784,-1.960784,-1.960784,3
-2.823529,0,-66.352941,-0.007843,-0.023529,-0.007843,-1.960784,-1.960784,-1.960784,3
-2.823529,0,-66.352941,-0.007843,-0.023529,-0.007843,-1.960784,-1.960784,-1.960784,3
-2.823529,0,-66.352941,-0.023529,-0.023529,-0.007843,-1.960784,-1.960784,-1.960784,3
-2.823529,0,-66.352941,-0.007843,-0.023529,0.007843,-1.960784,-1.960784,-1.960784,3
-2.823529,0,-66.352941,-0.007843,-0.023529,-0.007843,-1.960784,-1.960784,-1.960784,3
-2.823529,0,-66.352941,-0.007843,-0.023529,-0.007843,-1.960784,-1.960784,-1.960784,3
-2.823529,0,-66.352941,-0.007843,-0.023529,-0.007843,-1.960784,-1.960784,-1.960784,3
-2.823529,0,-66.352941,-0.007843,-0.023529,-0.007843,-1.960784,-1.960784,-1.960784,3
-2.823529,0,-66.352941,-0.007843,-0.023529,-0.007843,-1.960784,-1.960784,-1.960784,3
-2.823529,0,-66.352941,-0.023529,-0.023529,-0.007843,-1.960784,-1.960784,-1.960784,3
-2.823529,0,-66.352941,-0.007843,-0.023529,-0.007843,-1.960784,-1.960784,-1.960784,3
-2.823529,0,-66.352941,-0.007843,-0.023529,-0.007843,-1.960784,-1.960784,-1.960784,3
-2.823529,0,-66.352941,-0.007843,-0.023529,-0.007843,-1.960784,-1.960784,-1.960784,3
-2.823529,0,-66.352941,-0.007843,-0.023529,-0.007843,-1.960784,-1.960784,-1.960784,3
-2.823529,0,-66.352941,-0.007843,-0.039216,-0.007843,-1.960784,-1.960784,-1.960784,3
-2.823529,0,-66.352941,-0.007843,-0.007843,0.007843,-1.960784,-1.960784,-1.960784,3
-2.823529,0,-66.352941,-0.007843,-0.039216,0.007843,-1.960784,-1.960784,-1.960784,3
-2.823529,0,-66.352941,-0.007843,-0.039216,-0.007843,-1.960784,-1.960784,-1.960784,3
-2.823529,0,-66.352941,-0.007843,-0.023529,-0.007843,-1.960784,-1.960784,-1.960784,3
-2.823529,0,-66.352941,-0.007843,-0.023529,-0.007843,-1.960784,-1.960784,-1.960784,3
-2.823529,0,-66.352941,-0.007843,-0.023529,-0.007843,-1.960784,-1.960784,-1.960784,3
-2.823529,0,-66.352941,-0.007843,-0.023529,-0.007843,-1.960784,-1.960784,-1.960784,3
-2.823529,0,-66.352941,-0.007843,-0.023529,-0.007843,-1.960784,-1.960784,-1.960784,3
-2.823529,0,-66.352941,-0.023529,-0.023529,-0.007843,-1.960784,-1.960784,-1.960784,3
-2.823529,0,-66.352941,-0.007843,-0.023529,-0.007843,-1.960784,-1.960784,-1.960784,3
-2.823529,0,-66.352941,-0.007843,-0.023529,-0.007843,-1.960784,-1.960784,-1.960784,3
-2.823529,0,-66.352941,-0.007843,-0.023529,-0.007843,-1.960784,-1.960784,-1.960784,3
-2.823529,0,-66.352941,-0.007843,-0.023529,-0.007843,-1.960784,-1.960784,-1.960784,3
-2.823529,0,-66.352941,-0.007843,-0.023529,0.007843,-1.960784,-1.960784,-1.960784,3
-2.823529,0,-66.352941,-0.007843,-0.023529,-0.007843,-1.960784,-1.960784,-1.960784,3
-2.823529,0,-66.352941,-0.007843,-0.023529,-0.007843,-1.960784,-1.960784,-1.960784,3
-2.823529,0,-66.352941,-0.007843,-0.023529,-0.007843,-1.960784,-1.960784,-1.960784,3
-2.823529,0,-66.352941,-0.023529,-0.023529,-0.007843,-1.960784,-1.960784,-1.960784,3
-2.823529,0,-66.352941,-0.007843,-0.023529,-0.007843,-1.960784,-1.960784,-1.960784,3
-2.823529,0,-66.352941,-0.023529,-0.039216,-0.007843,-1.960784,-1.960784,-1.960784,3
-2.823529,0,-66.352941,-0.007843,-0.023529,-0.007843,-1.960784,-1.960784,-1.960784,3
-2.823529,0,-66.352941,-0.023529,-0.023529,-0.007843,-1.960784,-1.960784,-1.960784,3
-2.823529,0,-66.352941,-0.023529,-0.023529,-0.007843,-1.960784,-1.960784,-1.960784,3
-2.823529,0,-66.352941,-0.007843,-0.023529,-0.007843,-1.960784,-1.960784,-1.960784,3
-2.823529,0,-66.352941,-0.007843,-0.023529,-0.007843,-1.960784,-1.960784,-1.960784,3
-2.823529,0,-66.352941,-0.023529,-0.039216,-0.007843,-1.960784,-1.960784,-1.960784,3
-2.823529,0,-66.352941,-0.007843,-0.023529,-0.007843,-1.960784,-1.960784,-1.960784,3
-2.823529,0,-66.352941,-0.007843,-0.023529,-0.007843,-1.960784,-1.960784,-1.960784,3
-2.823529,0,-66.352941,-0.023529,-0.039216,-0.007843,-1.960784,-1.960784,-1.960784,3
-2.823529,0,-66.352941,-0.007843,-0.023529,-0.007843,-1.960784,-1.960784,-1.960784,3
-2.823529,0,-67.764706,-0.023529,-0.039216,-0.007843,-1.960784,-1.960784,-1.960784,3
-2.823529,0,-67.764706,-0.007843,-0.023529,-0.007843,-1.960784,-1.960784,-1.960784,3
-2.823529,0,-67.764706,-0.007843,-0.023529,-0.007843,-1.960784,-1.960784,-1.960784,3
-2.823529,0,-67.764706,-0.007843,-0.023529,-0.007843,-1.960784,-1.960784,-1.960784,3
-2.823529,0,-67.764706,-0.007843,-0.023529,-0.007843,-1.960784,-1.960784,-1.960784,3
-2.823529,0,-67.764706,-0.007843,-0.023529,-0.007843,-1.960784,-1.960784,-1.960784,3
-2.823529,0,-67.764706,-0.007843,-0.023529,-0.007843,-1.960784,-1.960784,-1.960784,3
-2.823529,0,-67.764706,-0.023529,-0.023529,-0.007843,-1.960784,-1.960784,-1.960784,3
-2.823529,0,-67.764706,-0.007843,-0.023529,-0.007843,-1.960784,-1.960784,-1.960784,3
-2.823529,0,-67.764706,-0.023529,-0.023529,-0.007843,-1.960784,-1.960784,-1.960784,3
-2.823529,0,-67.764706,-0.007843,-0.023529,-0.007843,-1.960784,-1.960784,-1.960784,3
-2.823529,0,-67.764706,-0.023529,-0.023529,-0.007843,-1.960784,-1.960784,-1.960784,3
-2.823529,0,-67.764706,-0.007843,-0.023529,-0.007843,-1.960784,-1.960784,-1.960784,3
-2.823529,0,-67.764706,-0.007843,-0.023529,-0.007843,-1.960784,-1.960784,-1.960784,3
-2.823529,0,-67.764706,-0.023529,-0.023529,-0.007843,-1.960784,-1.960784,-1.960784,3
-2.823529,0,-67.764706,-0.007843,-0.023529,-0.007843,-1.960784,-1.960784,-1.960784,3
-2.823529,0,-67.764706,-0.023529,-0.023529,-0.007843,-1.960784,-1.960784,-1.960784,3
-2.823529,0,-67.764706,-0.007843,-0.023529,-0.007843,-1.960784,-1.960784,-1.960784,3
-2.823529,0,-67.764706,-0.007843,-0.023529,-0.007843,-1.960784,-1.960784,-1.960784,3
-2.823529,0,-67.764706,-0.007843,-0.023529,-0.007843,-1.960784,-1.960784,-1.960784,3
-2.823529,0,-67.764706,-0.007843,-0.023529,-0.007843,-1.960784,-1.960784,-1.960784,3
-2.823529,0,-67.764706,-0.023529,-0.023529,-0.007843,-1.960784,-1.960784,-1.960784,3
-2.823529,0,-67.764706,-0.007843,-0.023529,-0.007843,-1.960784,-1.960784,-1.960784,3
-2.823529,0,-67.764706,-0.007843,-0.023529,-0.007843,-1.960784,-1.960784,-1.960784,3
-2.823529,0,-67.764706,-0.007843,-0.023529,-0.007843,-1.960784,-1.960784,-1.960784,3
-2.823529,0,-67.764706,-0.007843,-0.023529,-0.007843,-1.960784,-1.960784,-1.960784,3
-2.823529,0,-67.764706,-0.007843,-0.039216,-0.007843,-1.960784,-1.960784,-1.960784,3
-2.823529,0,-67.764706,-0.007843,-0.023529,-0.007843,-1.960784,-1.960784,-1.960784,3
-2.823529,0,-67.764706,-0.007843,-0.023529,-0.007843,-1.960784,-1.960784,-1.960784,3
-2.823529,0,-67.764706,-0.023529,-0.023529,0.007843,-1.960784,-1.960784,-1.960784,3
-2.823529,0,-67.764706,-0.007843,-0.023529,-0.007843,-1.960784,-1.960784,-1.960784,3
-2.823529,0,-67.764706,-0.023529,-0.023529,-0.007843,-1.960784,-1.960784,-1.960784,3
-2.823529,0,-67.764706,-0.007843,-0.039216,-0.007843,-1.960784,-1.960784,-1.960784,3
-2.823529,0,-67.764706,-0.007843,-0.023529,0.007843,-1.960784,-1.960784,-1.960784,3
-2.823529,0,-67.764706,-0.007843,-0.023529,-0.007843,-1.960784,-1.960784,-1.960784,3
-2.823529,0,-67.764706,-0.007843,-0.023529,-0.007843,-1.960784,-1.960784,-1.960784,3
-2.823529,0,-67.764706,-0.007843,-0.023529,-0.007843,-1.960784,-1.960784,-1.960784,3
-2.823529,0,-67.764706,-0.023529,-0.023529,-0.007843,-1.960784,-1.960784,-1.960784,3
-2.823529,0,-67.764706,-0.007843,-0.023529,-0.007843,-1.960784,-1.960784,-1.960784,3
-2.823529,0,-67.764706,-0.023529,-0.039216,-0.007843,-1.960784,-1.960784,-1.960784,3
-2.823529,0,-67.764706,-0.023529,-0.023529,-0.007843,-1.960784,-1.960784,-1.960784,3
-2.823529,0,-67.764706,-0.007843,-0.023529,-0.007843,-1.960784,-1.960784,-1.960784,3
-2.823529,0,-67.764706,-0.023529,-0.039216,0.007843,-1.960784,-1.960784,-1.960784,3
-2.823529,0,-67.764706,-0.007843,-0.023529,-0.007843,-1.960784,-1.960784,-1.960784,3
-2.823529,0,-67.764706,-0.023529,-0.023529,-0.007843,-1.960784,-1.960784,-1.960784,3
-2.823529,0,-67.764706,-0.023529,-0.023529,-0.007843,-1.960784,-1.960784,-1.960784,3
-2.823529,0,-69.176471,-0.007843,-0.023529,0.007843,-1.960784,-1.960784,-1.960784,3
-2.823529,0,-69.176471,-0.007843,-0.023529,-0.007843,-1.960784,-1.960784,-1.960784,3
-2.823529,0,-69.176471,-0.007843,-0.023529,-0.007843,-1.960784,-1.960784,-1.960784,3
-2.823529,0,-69.176471,-0.007843,-0.023529,-0.007843,-1.960784,-1.960784,-1.960784,3
-2.823529,0,-69.176471,-0.007843,-0.023529,-0.007843,-1.960784,-1.960784,-1.960784,3
-2.823529,0,-69.176471,-0.007843,-0.023529,-0.007843,-1.960784,-1.960784,-1.960784,3
-2.823529,0,-69.176471,-0.007843,-0.023529,-0.007843,-1.960784,-1.960784,-1.960784,3
-2.823529,0,-69.176471,-0.007843,-0.023529,0.007843,-1.960784,-1.960784,-1.960784,3
-2.823529,0,-69.176471,-0.007843,-0.023529,-0.007843,-1.960784,-1.960784,-1.960784,3
-2.823529,0,-69.176471,-0.023529,-0.023529,0.007843,-1.960784,-1.960784,-1.960784,3
-2.823529,0,-69.176471,-0.007843,-0.023529,-0.007843,-1.960784,-1.960784,-1.960784,3
-2.823529,0,-69.176471,-0.007843,-0.023529,-0.007843,-1.960784,-1.960784,-1.960784,3
-2.823529,0,-69.176471,-0.023529,-0.023529,-0.007843,-1.960784,-1.960784,-1.960784,3
-2.823529,0,-69.176471,-0.007843,-0.023529,-0.007843,-1.960784,-1.960784,-1.960784,3
-2.823529,0,-69.176471,-0.023529,-0.023529,-0.007843,-1.960784,-1.960784,-1.960784,3
-2.823529,0,-69.176471,-0.007843,-0.023529,-0.007843,-1.960784,-1.960784,-1.960784,3
-2.823529,0,-69.176471,-0.023529,-0.023529,-0.007843,-1.960784,-1.960784,-1.960784,3
-2.823529,0,-69.176471,-0.007843,-0.023529,0.007843,-1.960784,-1.960784,-1.960784,3
-2.823529,0,-69.176471,-0.007843,-0.023529,0.007843,-1.960784,-1.960784,-1.960784,3
-2.823529,0,-69.176471,-0.007843,-0.023529,-0.007843,-1.960784,-1.960784,-1.960784,3
-2.823529,0,-69.176471,-0.007843,-0.023529,-0.007843,-1.960784,-1.960784,-1.960784,3
-2.823529,0,-69.176471,-0.023529,-0.023529,-0.007843,-1.960784,-1.960784,-1.960784,3
-2.823529,0,-69.176471,-0.007843,-0.023529,-0.007843,-1.960784,-1.960784,-1.960784,3
-2.823529,0,-69.176471,-0.023529,-0.023529,0.007843,-1.960784,-1.960784,-1.960784,3
-2.823529,0,-69.176471,-0.007843,-0.023529,-0.007843,-1.960784,-1.960784,-1.960784,3
-2.823529,0,-69.176471,-0.007843,-0.023529,-0.007843,-1.960784,-1.960784,-1.960784,3
-2.823529,0,-69.176471,-0.007843,-0.023529,-0.007843,-1.960784,-1.960784,-1.960784,3
-2.823529,0,-69.176471,-0.007843,-0.023529,-0.007843,-1.960784,-1.960784,-1.960784,3
-2.823529,0,-69.176471,-0.007843,-0.023529,0.007843,-1.960784,-1.960784,-1.960784,3
-2.823529,0,-69.176471,-0.007843,-0.023529,-0.007843,-1.960784,-1.960784,-1.960784,3
-2.823529,0,-69.176471,-0.007843,-0.023529,-0.007843,-1.960784,-1.960784,-1.960784,3
-2.823529,0,-69.176471,-0.007843,-0.023529,-0.007843,-1.960784,-1.960784,-1.960784,3
-2.823529,0,-69.176471,-0.007843,-0.023529,-0.007843,-1.960784,-1.960784,-1.960784,3
-2.823529,0,-69.176471,-0.023529,-0.023529,-0.007843,-1.960784,-1.960784,-1.960784,3
-2.823529,0,-69.176471,-0.007843,-0.023529,-0.007843,-1.960784,-1.960784,-1.960784,3
-2.823529,0,-69.176471,-0.007843,-0.023529,-0.007843,-1.960784,-1.960784,-1.960784,3
-2.823529,0,-69.176471,-0.007843,-0.023529,-0.007843,-1.960784,-1.960784,-1.960784,3
-2.823529,0,-69.176471,-0.007843,-0.023529,-0.007843,-1.960784,-1.960784,-1.960784,3
-2.823529,0,-69.176471,-0.007843,-0.023529,-0.007843,-1.960784,-1.960784,-1.960784,3
-2.823529,0,-69.176471,-0.007843,-0.023529,-0.007843,-1.960784,-1.960784,-1.960784,3
-2.823529,0,-69.176471,-0.007843,-0.023529,-0.007843,-1.960784,-1.960784,-1.960784,3
-2.823529,0,-69.176471,-0.007843,-0.039216,-0.007843,-1.960784,-1.960784,-1.960784,3
-2.823529,0,-69.176471,-0.007843,-0.023529,-0.007843,-1.960784,-1.960784,-1.960784,3
-2.823529,0,-69.176471,-0.023529,-0.039216,-0.007843,-1.960784,-1.960784,-1.960784,3
-2.823529,0,-70.588235,-0.023529,-0.023529,0.007843,-1.960784,-1.960784,-1.960784,3
-2.823529,0,-70.588235,-0.007843,-0.023529,-0.007843,-1.960784,-1.960784,-1.960784,3
-2.823529,0,-70.588235,-0.007843,-0.023529,-0.007843,-1.960784,-1.960784,-1.960784,3
-2.823529,0,-70.588235,-0.023529,-0.023529,-0.007843,-1.960784,-1.960784,-1.960784,3
-2.823529,0,-70.588235,-0.023529,-0.023529,-0.007843,-1.960784,-1.960784,-1.960784,3
-2.823529,0,-70.588235,-0.023529,-0.023529,-0.007843,-1.960784,-1.960784,-1.960784,3
-2.823529,0,-70.588235,-0.007843,-0.023529,-0.007843,-1.960784,-1.960784,-1.960784,3
-2.823529,0,-70.588235,-0.023529,-0.023529,-0.007843,-1.960784,-1.960784,-1.960784,3
-2.823529,0,-70.588235,-0.023529,-0.023529,-0.007843,-1.960784,-1.960784,-1.960784,3
-2.823529,0,-70.588235,-0.007843,-0.023529,-0.007843,-1.960784,-1.960784,-1.960784,3
-2.823529,0,-70.588235,-0.007843,-0.023529,-0.007843,-1.960784,-1.960784,-1.960784,3
-2.823529,0,-70.588235,-0.007843,-0.023529,-0.007843,-1.960784,-1.960784,-1.960784,3
-2.823529,0,-70.588235,-0.007843,-0.039216,-0.007843,-1.960784,-1.960784,-1.960784,3
-2.823529,0,-70.588235,-0.007843,-0.023529,0.007843,-1.960784,-1.960784,-1.960784,3
-2.823529,0,-70.588235,-0.007843,-0.023529,-0.007843,-1.960784,-1.960784,-1.960784,3
-2.823529,0,-70.588235,-0.007843,-0.023529,-0.007843,-1.960784,-1.960784,-1.960784,3
-2.823529,0,-70.588235,-0.007843,-0.023529,-0.007843,-1.960784,-1.960784,-1.960784,3
-2.823529,0,-70.588235,-0.007843,-0.039216,-0.007843,-1.960784,-1.960784,-1.960784,3
-2.823529,0,-70.588235,-0.007843,-0.023529,-0.007843,-1.960784,-1.960784,-1.960784,3
-2.823529,0,-70.588235,-0.007843,-0.023529,-0.007843,-1.960784,-1.960784,-1.960784,3
-2.823529,0,-70.588235,-0.007843,-0.023529,-0.007843,-1.960784,-1.960784,-1.960784,3
-2.823529,0,-70.588235,-0.007843,-0.023529,-0.007843,-1.960784,-1.960784,-1.960784,3
-2.823529,0,-70.588235,-0.007843,-0.023529,-0.007843,-1.960784,-1.960784,-1.960784,3
-2.823529,0,-70.588235,-0.007843,-0.023529,-0.007843,-1.960784,-1.960784,-1.960784,3
-2.823529,0,-70.588235,-0.007843,-0.023529,-0.007843,-1.960784,-1.960784,-1.960784,3
-2.823529,0,-70.588235,-0.007843,-0.023529,-0.007843,-1.960784,-1.960784,-1.960784,3
-2.823529,0,-70.588235,-0.007843,-0.023529,-0.007843,-1.960784,-1.960784,-1.960784,3
-2.823529,0,-70.588235,-0.007843,-0.023529,-0.007843,-1.960784,-1.960784,-1.960784,3
-2.823529,0,-70.588235,-0.007843,-0.023529,-0.007843,-1.960784,-1.960784,-1.960784,3
-2.823529,0,-70.588235,-0.007843,-0.023529,-0.007843,-1.960784,-1.960784,-1.960784,3
-2.823529,0,-70.588235,-0.007843,-0.023529,-0.007843,-1.960784,-1.960784,-1.960784,3
-2.823529,0,-70.588235,-0.007843,-0.023529,-0.007843,-1.960784,-1.960784,-1.960784,3
-2.823529,0,-70.588235,-0.007843,-0.023529,-0.007843,-1.960784,-1.960784,-1.960784,3
-2.823529,0,-70.588235,-0.007843,-0.023529,-0.007843,-1.960784,-1.960784,-1.960784,3
-2.823529,0,-70.588235,-0.007843,-0.023529,-0.007843,-1.960784,-1.960784,-1.960784,3
-2.823529,0,-70.588235,-0.007843,-0.023529,-0.007843,-1.960784,-1.960784,-1.960784,3
-2.823529,0,-70.588235,-0.007843,-0.023529,-0.007843,-1.960784,-1.960784,-1.960784,3
-2.823529,0,-70.588235,-0.007843,-0.023529,-0.007843,-1.960784,-1.960784,-1.960784,3
-2.823529,0,-70.588235,-0.007843,-0.023529,-0.007843,-1.960784,-1.960784,-1.960784,3
-2.823529,0,-70.588235,-0.007843,-0.023529,-0.007843,-1.960784,-1.960784,-1.960784,3
-2.823529,0,-70.588235,-0.007843,-0.023529,-0.007843,-1.960784,-1.960784,-1.960784,3
-2.823529,0,-70.588235,-0.007843,-0.023529,0.007843,-1.960784,-1.960784,-1.960784,3
-2.823529,0,-70.588235,-0.007843,-0.023529,0.007843,-1.960784,-1.960784,-1.960784,3
-2.823529,0,-70.588235,-0.007843,-0.023529,-0.007843,-1.960784,-1.960784,-1.960784,3
-2.823529,0,-70.588235,-0.007843,-0.023529,-0.007843,-1.960784,-1.960784,-1.960784,3
-2.823529,0,-70.588235,-0.007843,-0.023529,-0.007843,-1.960784,-1.960784,-1.960784,3
-2.823529,0,-72,-0.007843,-0.039216,-0.007843,-1.960784,-1.960784,-1.960784,3
-2.823529,0,-72,-0.007843,-0.023529,-0.007843,-1.960784,-1.960784,-1.960784,3
-2.823529,0,-72,-0.007843,-0.023529,0.007843,-1.960784,-1.960784,-1.960784,3
-2.823529,0,-72,-0.023529,-0.023529,-0.007843,-1.960784,-1.960784,-1.960784,3
-2.823529,0,-72,-0.007843,-0.023529,-0.007843,-1.960784,-1.960784,-1.960784,3
-2.823529,0,-72,-0.007843,-0.023529,-0.007843,-1.960784,-1.960784,-1.960784,3
-2.823529,0,-72,-0.007843,-0.023529,-0.007843,-1.960784,-1.960784,-1.960784,3
-2.823529,0,-72,-0.007843,-0.023529,-0.007843,-1.960784,-1.960784,-1.960784,3
-2.823529,0,-72,-0.007843,-0.023529,-0.007843,-1.960784,-1.960784,-1.960784,3
-2.823529,0,-72,-0.023529,-0.023529,-0.007843,-1.960784,-1.960784,-1.960784,3
-2.823529,0,-72,-0.007843,-0.023529,-0.007843,-1.960784,-1.960784,-1.960784,3
-2.823529,0,-72,-0.007843,-0.023529,-0.007843,-1.960784,-1.960784,-1.960784,3
-2.823529,0,-72,-0.007843,-0.023529,-0.007843,-1.960784,-1.960784,-1.960784,3
-2.823529,0,-72,-0.007843,-0.023529,-0.007843,-1.960784,-1.960784,-1.960784,3
-2.823529,0,-72,-0.007843,-0.023529,-0.007843,-1.960784,-1.960784,-1.960784,3
-2.823529,0,-72,-0.007843,-0.023529,-0.007843,-1.960784,-1.960784,-1.960784,3
-2.823529,0,-72,-0.023529,-0.023529,-0.007843,-1.960784,-1.960784,-1.960784,3
-2.823529,0,-72,-0.007843,-0.023529,-0.007843,-1.960784,-1.960784,-1.960784,3
-2.823529,0,-72,-0.007843,-0.023529,-0.007843,-1.960784,-1.960784,-1.960784,3
-2.823529,0,-72,-0.007843,-0.023529,0.007843,-1.960784,-1.960784,-1.960784,3
-2.823529,0,-72,-0.007843,-0.023529,-0.007843,-1.960784,-1.960784,-1.960784,3
-2.823529,0,-72,-0.007843,-0.023529,-0.007843,-1.960784,-1.960784,-1.960784,3
-2.823529,0,-72,-0.023529,-0.023529,-0.007843,-1.960784,-1.960784,-1.960784,3
-2.823529,0,-72,-0.023529,-0.023529,-0.007843,-1.960784,-1.960784,-1.960784,3
-2.823529,0,-72,-0.007843,-0.023529,0.007843,-1.960784,-1.960784,-1.960784,3
-2.823529,0,-72,-0.023529,-0.023529,0.007843,-1.960784,-1.960784,-1.960784,3
-2.823529,0,-72,-0.007843,-0.023529,-0.007843,-1.960784,-1.960784,-1.960784,3
-2.823529,0,-72,-0.007843,-0.023529,0.007843,-1.960784,-1.960784,-1.960784,3
-2.823529,0,-72,-0.023529,-0.023529,-0.007843,-1.960784,-1.960784,-1.960784,3
-2.823529,0,-72,-0.007843,-0.023529,-0.007843,-1.960784,-1.960784,-1.960784,3
-2.823529,0,-72,-0.007843,-0.023529,-0.007843,-1.960784,-1.960784,-1.960784,3
-2.823529,0,-72,-0.007843,-0.023529,-0.007843,-1.960784,-1.960784,-1.960784,3
-2.823529,0,-72,-0.007843,-0.023529,-0.007843,-1.960784,-1.960784,-1.960784,3
-2.823529,0,-72,-0.007843,-0.023529,-0.007843,-1.960784,-1.960784,-1.960784,3
-2.823529,0,-72,-0.007843,-0.023529,-0.007843,-1.960784,-1.960784,-1.960784,3
-2.823529,0,-72,-0.007843,-0.023529,-0.007843,-1.960784,-1.960784,-1.960784,3
-2.823529,0,-72,-0.007843,-0.023529,-0.007843,-1.960784,-1.960784,-1.960784,3
-2.823529,0,-72,-0.023529,-0.023529,-0.007843,-1.960784,-1.960784,-1.960784,3
-2.823529,0,-72,-0.007843,-0.023529,-0.007843,-1.960784,-1.960784,-1.960784,3
-2.823529,0,-72,-0.007843,-0.023529,-0.007843,-1.960784,-1.960784,-1.960784,3
-2.823529,0,-72,-0.007843,-0.023529,-0.007843,-1.960784,-1.960784,-1.960784,3
-2.823529,0,-72,-0.007843,-0.023529,-0.007843,-1.960784,-1.960784,-1.960784,3
-2.823529,0,-72,-0.007843,-0.023529,-0.007843,-1.960784,-1.960784,-1.960784,3
-2.823529,0,-72,-0.007843,-0.023529,-0.007843,-1.960784,-1.960784,-1.960784,3
-2.823529,0,-72,-0.023529,-0.023529,-0.007843,-1.960784,-1.960784,-1.960784,3
-2.823529,0,-72,-0.023529,-0.023529,-0.007843,-1.960784,-1.960784,-1.960784,3
-2.823529,0,-72,-0.007843,-0.023529,-0.007843,-1.960784,-1.960784,-1.960784,3
-2.823529,0,-72,-0.023529,-0.023529,-0.007843,-1.960784,-1.960784,-1.960784,3
-2.823529,0,-73.411765,-0.007843,-0.023529,-0.007843,-1.960784,-1.960784,-1.960784,3
-2.823529,0,-73.411765,-0.007843,-0.023529,-0.007843,-1.960784,-1.960784,-1.960784,3
-2.823529,0,-73.411765,-0.023529,-0.023529,-0.007843,-1.960784,-1.960784,-1.960784,3
-2.823529,0,-73.411765,-0.007843,-0.023529,-0.007843,-1.960784,-1.960784,-1.960784,3
-2.823529,0,-73.411765,-0.007843,-0.023529,-0.007843,-1.960784,-1.960784,-1.960784,3
-2.823529,0,-73.411765,-0.007843,-0.023529,-0.007843,-1.960784,-1.960784,-1.960784,3
-2.823529,0,-73.411765,-0.007843,-0.023529,-0.007843,-1.960784,-1.960784,-1.960784,3
-2.823529,0,-73.411765,-0.007843,-0.023529,-0.007843,-1.960784,-1.960784,-1.960784,3
-2.823529,0,-73.411765,-0.007843,-0.023529,-0.007843,-1.960784,-1.960784,-1.960784,3
-2.823529,0,-73.411765,-0.007843,-0.023529,-0.007843,-1.960784,-1.960784,-1.960784,3
-2.823529,0,-73.411765,-0.007843,-0.023529,-0.007843,-1.960784,-1.960784,-1.960784,3
-2.823529,0,-73.411765,-0.007843,-0.023529,-0.007843,-1.960784,-1.960784,-1.960784,3
-2.823529,0,-73.411765,-0.007843,-0.023529,-0.007843,-1.960784,-1.960784,-1.960784,3
-2.823529,0,-73.411765,-0.007843,-0.023529,-0.007843,-1.960784,-1.960784,-1.960784,3
-2.823529,0,-73.411765,-0.007843,-0.023529,-0.007843,-1.960784,-1.960784,-1.960784,3
-2.823529,0,-73.411765,-0.023529,-0.023529,-0.007843,-1.960784,-1.960784,-1.960784,3
-2.823529,0,-73.411765,-0.007843,-0.023529,-0.007843,-1.960784,-1.960784,-1.960784,3
-2.823529,0,-73.411765,-0.007843,-0.023529,-0.007843,-1.960784,-1.960784,-1.960784,3
-2.823529,0,-73.411765,-0.007843,-0.023529,-0.007843,-1.960784,-1.960784,-1.960784,3
-2.823529,0,-73.411765,-0.007843,-0.023529,-0.007843,-1.960784,-1.960784,-1.960784,3
-2.823529,0,-73.411765,-0.007843,-0.023529,-0.007843,-1.960784,-1.960784,-1.960784,3
-2.823529,0,-73.411765,-0.007843,-0.023529,-0.007843,-1.960784,-1.960784,-1.960784,3
-2.823529,0,-73.411765,-0.007843,-0.023529,-0.007843,-1.960784,-1.960784,-1.960784,3
-2.823529,0,-73.411765,-0.007843,-0.023529,-0.007843,-1.960784,-1.960784,-1.960784,3
-2.823529,0,-73.411765,-0.007843,-0.023529,-0.007843,-1.960784,-1.960784,-1.960784,3
-2.823529,0,-73.411765,-0.007843,-0.023529,-0.007843,-1.960784,-1.960784,-1.960784,3
-2.823529,0,-73.411765,-0.007843,-0.023529,-0.007843,-1.960784,-1.960784,-1.960784,3
-2.823529,0,-73.411765,-0.007843,-0.023529,-0.007843,-1.960784,-1.960784,-1.960784,3
-2.823529,0,-73.411765,-0.007843,-0.023529,-0.007843,-1.960784,-1.960784,-1.960784,3
-2.823529,0,-73.411765,-0.007843,-0.023529,-0.007843,-1.960784,-1.960784,-1.960784,3
-2.823529,0,-73.411765,-0.007843,-0.023529,-0.007843,-1.960784,-1.960784,-1.960784,3
-2.823529,0,-73.411765,-0.007843,-0.023529,-0.007843,-1.960784,-1.960784,-1.960784,3
-2.823529,0,-73.411765,-0.007843,-0.023529,0.007843,-1.960784,-1.960784,-1.960784,3
-2.823529,0,-73.411765,-0.007843,-0.023529,-0.007843,-1.960784,-1.960784,-1.960784,3
-2.823529,0,-73.411765,-0.007843,-0.023529,-0.007843,-1.960784,-1.960784,-1.960784,3
-2.823529,0,-73.411765,-0.007843,-0.023529,-0.007843,-1.960784,-1.960784,-1.960784,3
-2.823529,0,-73.411765,-0.007843,-0.023529,-0.007843,-1.960784,-1.960784,-1.960784,3
-2.823529,0,-73.411765,-0.007843,-0.023529,-0.007843,-1.960784,-1.960784,-1.960784,3
-2.823529,0,-73.411765,-0.007843,-0.023529,-0.007843,-1.960784,-1.960784,-1.960784,3
-2.823529,0,-73.411765,-0.023529,-0.023529,-0.007843,-1.960784,-1.960784,-1.960784,3
-2.823529,0,-73.411765,-0.007843,-0.023529,-0.007843,-1.960784,-1.960784,-1.960784,3
-2.823529,0,-73.411765,-0.007843,-0.023529,-0.007843,-1.960784,-1.960784,-1.960784,3
-2.823529,0,-73.411765,-0.023529,-0.023529,-0.007843,-1.960784,-1.960784,-1.960784,3
-2.823529,0,-73.411765,-0.007843,-0.023529,-0.007843,-1.960784,-1.960784,-1.960784,3
-2.823529,0,-73.411765,-0.023529,-0.023529,-0.007843,-1.960784,-1.960784,-1.960784,3
-2.823529,0,-73.411765,-0.007843,-0.023529,-0.007843,-1.960784,-1.960784,-1.960784,3
-2.823529,0,-73.411765,-0.007843,-0.023529,-0.007843,-1.960784,-1.960784,-1.960784,3
-2.823529,0,-74.823529,-0.007843,-0.023529,-0.007843,-1.960784,-1.960784,-1.960784,3
-2.823529,0,-74.823529,-0.007843,-0.023529,0.007843,-1.960784,-1.960784,-1.960784,3
-2.823529,0,-74.823529,-0.007843,-0.023529,-0.007843,-1.960784,-1.960784,-1.960784,3
-2.823529,0,-74.823529,-0.023529,-0.023529,-0.007843,-1.960784,-1.960784,-1.960784,3
-2.823529,0,-74.823529,-0.007843,-0.023529,-0.007843,-1.960784,-1.960784,-1.960784,3
-2.823529,0,-74.823529,-0.007843,-0.023529,-0.007843,-1.960784,-1.960784,-1.960784,3
-2.823529,0,-74.823529,-0.023529,-0.023529,-0.007843,-1.960784,-1.960784,-1.960784,3
-2.823529,0,-74.823529,-0.007843,-0.023529,-0.007843,-1.960784,-1.960784,-1.960784,3
-2.823529,0,-74.823529,-0.007843,-0.039216,-0.007843,-1.960784,-1.960784,-1.960784,3
-2.823529,0,-74.823529,-0.007843,-0.023529,-0.007843,-1.960784,-1.960784,-1.960784,3
-2.823529,0,-74.823529,-0.007843,-0.023529,-0.007843,-1.960784,-1.960784,-1.960784,3
-2.823529,0,-74.823529,-0.007843,-0.023529,-0.007843,-1.960784,-1.960784,-1.960784,3
-2.823529,0,-74.823529,-0.007843,-0.023529,0.007843,-1.960784,-1.960784,-1.960784,3
-2.823529,0,-74.823529,-0.023529,-0.023529,-0.007843,-1.960784,-1.960784,-1.960784,3
-2.823529,0,-74.823529,-0.023529,-0.023529,-0.007843,-1.960784,-1.960784,-1.960784,3
-2.823529,0,-74.823529,-0.007843,-0.023529,-0.007843,-1.960784,-1.960784,-1.960784,3
-2.823529,0,-74.823529,-0.007843,-0.023529,-0.007843,-1.960784,-1.960784,-1.960784,3
-2.823529,0,-74.823529,-0.007843,-0.023529,-0.007843,-1.960784,-1.960784,-1.960784,3
-2.823529,0,-74.823529,-0.007843,-0.023529,-0.007843,-1.960784,-1.960784,-1.960784,3
-2.823529,0,-74.823529,-0.023529,-0.023529,-0.007843,-1.960784,-1.960784,-1.960784,3
-2.823529,0,-74.823529,-0.007843,-0.023529,-0.007843,-1.960784,-1.960784,-1.960784,3
-2.823529,0,-74.823529,-0.023529,-0.023529,-0.007843,-1.960784,-1.960784,-1.960784,3
-2.823529,0,-74.823529,-0.007843,-0.023529,-0.007843,-1.960784,-1.960784,-1.960784,3
-2.823529,0,-74.823529,-0.007843,-0.023529,0.007843,-1.960784,-1.960784,-1.960784,3
-2.823529,0,-74.823529,-0.007843,-0.023529,-0.007843,-1.960784,-1.960784,-1.960784,3
-2.823529,0,-74.823529,-0.023529,-0.023529,-0.007843,-1.960784,-1.960784,-1.960784,3
-2.823529,0,-74.823529,-0.007843,-0.023529,-0.007843,-1.960784,-1.960784,-1.960784,3
-2.823529,0,-74.823529,-0.007843,-0.023529,-0.007843,-1.960784,-1.960784,-1.960784,3
-2.823529,0,-74.823529,-0.023529,-0.023529,-0.007843,-1.960784,-1.960784,-1.960784,3
-2.823529,0,-74.823529,-0.007843,-0.023529,-0.007843,-1.960784,-1.960784,-1.960784,3
-2.823529,0,-74.823529,-0.007843,-0.023529,-0.007843,-1.960784,-1.960784,-1.960784,3
-2.823529,0,-74.823529,-0.023529,-0.023529,-0.007843,-1.960784,-1.960784,-1.960784,3
-2.823529,0,-74.823529,-0.007843,-0.023529,-0.007843,-1.960784,-1.960784,-1.960784,3
-2.823529,0,-74.823529,-0.007843,-0.023529,-0.007843,-1.960784,-1.960784,-1.960784,3
-2.823529,0,-74.823529,-0.007843,-0.023529,-0.007843,-1.960784,-1.960784,-1.960784,3
-2.823529,0,-74.823529,-0.007843,-0.023529,-0.007843,-1.960784,-1.960784,-1.960784,3
-2.823529,0,-74.823529,-0.007843,-0.023529,0.007843,-1.960784,-1.960784,-1.960784,3
-2.823529,0,-74.823529,-0.023529,-0.023529,-0.007843,-1.960784,-1.960784,-1.960784,3
-2.823529,0,-74.823529,-0.023529,-0.023529,-0.007843,-1.960784,-1.960784,-1.960784,3
-2.823529,0,-74.823529,-0.007843,-0.023529,-0.007843,-1.960784,-1.960784,-1.960784,3
-2.823529,0,-74.823529,-0.007843,-0.023529,-0.007843,-1.960784,-1.960784,-1.960784,3
-2.823529,0,-74.823529,-0.007843,-0.023529,-0.007843,-1.960784,-1.960784,-1.960784,3
-2.823529,0,-74.823529,-0.007843,-0.023529,-0.007843,-1.960784,-1.960784,-1.960784,3
-2.823529,0,-74.823529,-0.007843,-0.023529,-0.007843,-1.960784,-1.960784,-1.960784,3
-2.823529,0,-74.823529,-0.007843,-0.023529,-0.007843,-1.960784,-1.960784,-1.960784,3
-2.823529,0,-74.823529,-0.007843,-0.023529,-0.007843,-1.960784,-1.960784,-1.960784,3
-2.823529,0,-74.823529,-0.007843,-0.023529,-0.007843,-1.960784,-1.960784,-1.960784,3
-2.823529,0,-76.235294,-0.007843,-0.023529,-0.007843,-1.960784,-1.960784,-1.960784,3
-2.823529,0,-76.235294,-0.007843,-0.023529,-0.007843,-1.960784,-1.960784,-1.960784,3
-2.823529,0,-76.235294,-0.007843,-0.023529,-0.007843,-1.960784,-1.960784,-1.960784,3
-2.823529,0,-76.235294,-0.023529,-0.023529,-0.007843,-1.960784,-1.960784,-1.960784,3
-2.823529,0,-76.235294,-0.007843,-0.023529,-0.007843,-1.960784,-1.960784,-1.960784,3
-2.823529,0,-76.235294,-0.023529,-0.023529,-0.007843,-1.960784,-1.960784,-1.960784,3
-2.823529,0,-76.235294,-0.007843,-0.023529,-0.007843,-1.960784,-1.960784,-1.960784,3
-2.823529,0,-76.235294,-0.007843,-0.023529,-0.007843,-1.960784,-1.960784,-1.960784,3
-2.823529,0,-76.235294,-0.007843,-0.023529,-0.007843,-1.960784,-1.960784,-1.960784,3
-2.823529,0,-76.235294,-0.007843,-0.023529,-0.007843,-1.960784,-1.960784,-1.960784,3
-2.823529,0,-76.235294,-0.007843,-0.023529,-0.007843,-1.960784,-1.960784,-1.960784,3
-2.823529,0,-76.235294,-0.023529,-0.023529,-0.007843,-1.960784,-1.960784,-1.960784,3
-2.823529,0,-76.235294,-0.007843,-0.023529,0.007843,-1.960784,-1.960784,-1.960784,3
-2.823529,0,-76.235294,-0.007843,-0.023529,-0.007843,-1.960784,-1.960784,-1.960784,3
-2.823529,0,-76.235294,-0.007843,-0.023529,0.007843,-1.960784,-1.960784,-1.960784,3
-2.823529,0,-76.235294,-0.007843,-0.023529,-0.007843,-1.960784,-1.960784,-1.960784,3
-2.823529,0,-76.235294,-0.023529,-0.023529,-0.007843,-1.960784,-1.960784,-1.960784,3
-2.823529,0,-76.235294,-0.007843,-0.023529,-0.007843,-1.960784,-1.960784,-1.960784,3
-2.823529,0,-76.235294,-0.023529,-0.023529,-0.007843,-1.960784,-1.960784,-1.960784,3
-2.823529,0,-76.235294,-0.007843,-0.023529,-0.007843,-1.960784,-1.960784,-1.960784,3
-2.823529,0,-76.235294,-0.007843,-0.023529,-0.007843,-1.960784,-1.960784,-1.960784,3
-2.823529,0,-76.235294,-0.007843,-0.023529,-0.007843,-1.960784,-1.960784,-1.960784,3
-2.823529,0,-76.235294,-0.007843,-0.023529,-0.007843,-1.960784,-1.960784,-1.960784,3
-2.823529,0,-76.235294,-0.007843,-0.023529,-0.007843,-1.960784,-1.960784,-1.960784,3
-2.823529,0,-76.235294,-0.007843,-0.023529,-0.007843,-1.960784,-1.960784,-1.960784,3
-2.823529,0,-76.235294,-0.023529,-0.023529,-0.007843,-1.960784,-1.960784,-1.960784,3
-2.823529,0,-76.235294,-0.007843,-0.023529,-0.007843,-1.960784,-1.960784,-1.960784,3
-2.823529,0,-76.235294,-0.007843,-0.023529,-0.007843,-1.960784,-1.960784,-1.960784,3
-2.823529,0,-76.235294,-0.023529,-0.023529,-0.007843,-1.960784,-1.960784,-1.960784,3
-2.823529,0,-76.235294,-0.023529,-0.023529,-0.007843,-1.960784,-1.960784,-1.960784,3
-2.823529,0,-76.235294,-0.007843,-0.023529,-0.007843,-1.960784,-1.960784,-1.960784,3
-2.823529,0,-76.235294,-0.007843,-0.023529,-0.007843,-1.960784,-1.960784,-1.960784,3
-2.823529,0,-76.235294,-0.007843,-0.023529,-0.007843,-1.960784,-1.960784,-1.960784,3
-2.823529,0,-76.235294,-0.007843,-0.023529,-0.007843,-1.960784,-1.960784,-1.960784,3
-2.823529,0,-76.235294,-0.007843,-0.023529,-0.007843,-1.960784,-1.960784,-1.960784,3
-2.823529,0,-76.235294,-0.007843,-0.039216,-0.007843,-1.960784,-1.960784,-1.960784,3
-2.823529,0,-76.235294,-0.007843,-0.023529,-0.007843,-1.960784,-1.960784,-1.960784,3
-2.823529,0,-76.235294,-0.007843,-0.023529,-0.007843,-1.960784,-1.960784,-1.960784,3
-2.823529,0,-76.235294,-0.007843,-0.023529,-0.007843,-1.960784,-1.960784,-1.960784,3
-2.823529,0,-76.235294,-0.023529,-0.023529,-0.007843,-1.960784,-1.960784,-1.960784,3
-2.823529,0,-76.235294,-0.007843,-0.023529,-0.007843,-1.960784,-1.960784,-1.960784,3
-2.823529,0,-76.235294,-0.007843,-0.023529,-0.007843,-1.960784,-1.960784,-1.960784,3
-2.823529,0,-76.235294,-0.007843,-0.023529,-0.007843,-1.960784,-1.960784,-1.960784,3
-2.823529,0,-76.235294,-0.007843,-0.023529,-0.007843,-1.960784,-1.960784,-1.960784,3
-2.823529,0,-76.235294,-0.023529,-0.023529,-0.007843,-1.960784,-1.960784,-1.960784,3
-2.823529,0,-76.235294,-0.007843,-0.023529,-0.007843,-1.960784,-1.960784,-1.960784,3
-2.823529,0,-77.647059,-0.007843,-0.023529,-0.007843,-1.960784,-1.960784,-1.960784,3
-2.823529,0,-77.647059,-0.007843,-0.023529,-0.007843,-1.960784,-1.960784,-1.960784,3
-2.823529,0,-77.647059,-0.007843,-0.023529,-0.007843,-1.960784,-1.960784,-1.960784,3
-2.823529,0,-77.647059,-0.007843,-0.023529,-0.007843,-1.960784,-1.960784,-1.960784,3
-2.823529,0,-77.647059,-0.007843,-0.023529,0.007843,-1.960784,-1.960784,-1.960784,3
-2.823529,0,-77.647059,-0.023529,-0.023529,-0.007843,-1.960784,-1.960784,-1.960784,3
-2.823529,0,-77.647059,-0.007843,-0.023529,-0.007843,-1.960784,-1.960784,-1.960784,3
-2.823529,0,-77.647059,-0.007843,-0.023529,-0.007843,-1.960784,-1.960784,-1.960784,3
-2.823529,0,-77.647059,-0.007843,-0.023529,-0.007843,-1.960784,-1.960784,-1.960784,3
-2.823529,0,-77.647059,-0.007843,-0.023529,-0.007843,-1.960784,-1.960784,-1.960784,3
-2.823529,0,-77.647059,-0.023529,-0.023529,-0.007843,-1.960784,-1.960784,-1.960784,3
-2.823529,0,-77.647059,-0.007843,-0.023529,-0.007843,-1.960784,-1.960784,-1.960784,3
-2.823529,0,-77.647059,-0.007843,-0.023529,-0.007843,-1.960784,-1.960784,-1.960784,3
-2.823529,0,-77.647059,-0.007843,-0.023529,-0.007843,-1.960784,-1.960784,-1.960784,3
-2.823529,0,-77.647059,-0.007843,-0.023529,-0.007843,-1.960784,-1.960784,-1.960784,3
-2.823529,0,-77.647059,-0.023529,-0.023529,-0.007843,-1.960784,-1.960784,-1.960784,3
-2.823529,0,-77.647059,-0.007843,-0.023529,-0.007843,-1.960784,-1.960784,-1.960784,3
-2.823529,0,-77.647059,-0.007843,-0.023529,-0.007843,-1.960784,-1.960784,-1.960784,3
-2.823529,0,-77.647059,-0.007843,-0.023529,-0.007843,-1.960784,-1.960784,-1.960784,3
-2.823529,0,-77.647059,-0.007843,-0.023529,-0.007843,-1.960784,-1.960784,-1.960784,3
-2.823529,0,-77.647059,-0.007843,-0.023529,-0.007843,-1.960784,-1.960784,-1.960784,3
-2.823529,0,-77.647059,-0.007843,-0.023529,-0.007843,-1.960784,-1.960784,-1.960784,3
-2.823529,0,-77.647059,-0.007843,-0.023529,-0.007843,-1.960784,-1.960784,-1.960784,3
-2.823529,0,-77.647059,-0.007843,-0.023529,-0.007843,-1.960784,-1.960784,-1.960784,3
-2.823529,0,-77.647059,-0.007843,-0.023529,-0.007843,-1.960784,-1.960784,-1.960784,3
-2.823529,0,-77.647059,-0.007843,-0.023529,-0.007843,-1.960784,-1.960784,-1.960784,3
-2.823529,0,-77.647059,-0.007843,-0.023529,-0.007843,-1.960784,-1.960784,-1.960784,3
-2.823529,0,-77.647059,-0.007843,-0.023529,-0.007843,-1.960784,-1.960784,-1.960784,3
-2.823529,0,-77.647059,-0.007843,-0.023529,-0.007843,-1.960784,-1.960784,-1.960784,3
-2.823529,0,-77.647059,-0.007843,-0.023529,0.007843,-1.960784,-1.960784,-1.960784,3
-2.823529,0,-77.647059,-0.007843,-0.023529,-0.007843,-1.960784,-1.960784,-1.960784,3
-2.823529,0,-77.647059,-0.007843,-0.023529,-0.007843,-1.960784,-1.960784,-1.960784,3
-2.823529,0,-77.647059,-0.007843,-0.023529,-0.007843,-1.960784,-1.960784,-1.960784,3
-2.823529,0,-77.647059,-0.007843,-0.023529,0.007843,-1.960784,-1.960784,-1.960784,3
-2.823529,0,-77.647059,-0.007843,-0.023529,-0.007843,-1.960784,-1.960784,-1.960784,3
-2.823529,0,-77.647059,-0.007843,-0.023529,0.007843,-1.960784,-1.960784,-1.960784,3
-2.823529,0,-77.647059,-0.007843,-0.023529,-0.007843,-1.960784,-1.960784,-1.960784,3
-2.823529,0,-77.647059,-0.007843,-0.023529,-0.007843,-1.960784,-1.960784,-1.960784,3
-2.823529,0,-77.647059,-0.023529,-0.023529,-0.007843,-1.960784,-1.960784,-1.960784,3
-2.823529,0,-77.647059,-0.007843,-0.039216,-0.007843,-1.960784,-1.960784,-1.960784,3
-2.823529,0,-77.647059,-0.007843,-0.023529,-0.007843,-1.960784,-1.960784,-1.960784,3
-2.823529,0,-77.647059,-0.007843,-0.023529,-0.007843,-1.960784,-1.960784,-1.960784,3
-2.823529,0,-77.647059,-0.007843,-0.023529,-0.007843,-1.960784,-1.960784,-1.960784,3
-2.823529,0,-77.647059,-0.023529,-0.023529,-0.007843,-1.960784,-1.960784,-1.960784,3
-2.823529,0,-77.647059,-0.007843,-0.023529,-0.007843,-1.960784,-1.960784,-1.960784,3
-2.823529,0,-77.647059,-0.023529,-0.023529,-0.007843,-1.960784,-1.960784,-1.960784,3
-2.823529,0,-77.647059,-0.007843,-0.023529,-0.007843,-1.960784,-1.960784,-1.960784,3
-2.823529,0,-77.647059,-0.007843,-0.023529,-0.007843,-1.960784,-1.960784,-1.960784,3
-2.823529,0,-79.058824,-0.007843,-0.023529,-0.007843,-1.960784,-1.960784,-1.960784,3
-2.823529,0,-79.058824,-0.023529,-0.023529,-0.007843,-1.960784,-1.960784,-1.960784,3
-2.823529,0,-79.058824,-0.007843,-0.023529,0.007843,-1.960784,-1.960784,-1.960784,3
-2.823529,0,-79.058824,-0.007843,-0.023529,-0.007843,-1.960784,-1.960784,-1.960784,3
-2.823529,0,-79.058824,-0.007843,-0.023529,-0.007843,-1.960784,-1.960784,-1.960784,3
-2.823529,0,-79.058824,-0.007843,-0.023529,-0.007843,-1.960784,-1.960784,-1.960784,3
-2.823529,0,-79.058824,-0.007843,-0.023529,-0.007843,-1.960784,-1.960784,-1.960784,3
-2.823529,0,-79.058824,-0.007843,-0.023529,0.007843,-1.960784,-1.960784,-1.960784,3
-2.823529,0,-79.058824,-0.007843,-0.023529,-0.007843,-1.960784,-1.960784,-1.960784,3
-2.823529,0,-79.058824,-0.007843,-0.023529,-0.007843,-1.960784,-1.960784,-1.960784,3
-2.823529,0,-79.058824,-0.007843,-0.023529,-0.007843,-1.960784,-1.960784,-1.960784,3
-2.823529,0,-79.058824,-0.007843,-0.023529,-0.007843,-1.960784,-1.960784,-1.960784,3
-2.823529,0,-79.058824,-0.007843,-0.023529,-0.007843,-1.960784,-1.960784,-1.960784,3
-2.823529,0,-79.058824,-0.007843,-0.023529,-0.007843,-1.960784,-1.960784,-1.960784,3
-2.823529,0,-79.058824,-0.007843,-0.023529,-0.007843,-1.960784,-1.960784,-1.960784,3
-2.823529,0,-79.058824,-0.007843,-0.023529,-0.007843,-1.960784,-1.960784,-1.960784,3
-2.823529,0,-79.058824,-0.007843,-0.023529,-0.007843,-1.960784,-1.960784,-1.960784,3
-2.823529,0,-79.058824,-0.007843,-0.023529,-0.007843,-1.960784,-1.960784,-1.960784,3
-2.823529,0,-79.058824,-0.007843,-0.023529,-0.007843,-1.960784,-1.960784,-1.960784,3
-2.823529,0,-79.058824,-0.007843,-0.023529,-0.007843,-1.960784,-1.960784,-1.960784,3
-2.823529,0,-79.058824,-0.007843,-0.023529,-0.007843,-1.960784,-1.960784,-1.960784,3
-2.823529,0,-79.058824,-0.007843,-0.023529,-0.007843,-1.960784,-1.960784,-1.960784,3
-2.823529,0,-79.058824,-0.007843,-0.023529,-0.007843,-1.960784,-1.960784,-1.960784,3
-2.823529,0,-79.058824,-0.007843,-0.023529,-0.007843,-1.960784,-1.960784,-1.960784,3
-2.823529,0,-79.058824,-0.007843,-0.023529,-0.007843,-1.960784,-1.960784,-1.960784,3
-2.823529,0,-79.058824,-0.007843,-0.023529,-0.007843,-1.960784,-1.960784,-1.960784,3
-2.823529,0,-79.058824,-0.007843,-0.023529,-0.007843,-1.960784,-1.960784,-1.960784,3
-2.823529,0,-79.058824,-0.023529,-0.023529,-0.007843,-1.960784,-1.960784,-1.960784,3
-2.823529,0,-79.058824,-0.007843,-0.023529,-0.007843,-1.960784,-1.960784,-1.960784,3
-2.823529,0,-79.058824,-0.007843,-0.023529,-0.007843,-1.960784,-1.960784,-1.960784,3
-2.823529,0,-79.058824,-0.023529,-0.023529,-0.007843,-1.960784,-1.960784,-1.960784,3
-2.823529,0,-79.058824,-0.007843,-0.023529,-0.007843,-1.960784,-1.960784,-1.960784,3
-2.823529,0,-79.058824,-0.023529,-0.023529,-0.007843,-1.960784,-1.960784,-1.960784,3
-2.823529,0,-79.058824,-0.023529,-0.023529,-0.007843,-1.960784,-1.960784,-1.960784,3
-2.823529,0,-79.058824,-0.007843,-0.023529,-0.007843,-1.960784,-1.960784,-1.960784,3
-2.823529,0,-79.058824,-0.023529,-0.023529,-0.007843,-1.960784,-1.960784,-1.960784,3
-2.823529,0,-79.058824,-0.023529,-0.023529,-0.007843,-1.960784,-1.960784,-1.960784,3
-2.823529,0,-79.058824,-0.023529,-0.023529,-0.007843,-1.960784,-1.960784,-1.960784,3
-2.823529,0,-79.058824,-0.023529,-0.023529,-0.007843,-1.960784,-1.960784,-1.960784,3
-2.823529,0,-79.058824,-0.007843,-0.023529,-0.007843,-1.960784,-1.960784,-1.960784,3
-2.823529,0,-79.058824,-0.007843,-0.023529,-0.007843,-1.960784,-1.960784,-1.960784,3
-2.823529,0,-79.058824,-0.007843,-0.023529,-0.007843,-1.960784,-1.960784,-1.960784,3
-2.823529,0,-79.058824,-0.007843,-0.039216,-0.007843,-1.960784,-1.960784,-1.960784,3
-2.823529,0,-79.058824,-0.007843,-0.023529,-0.007843,-1.960784,-1.960784,-1.960784,3
-2.823529,0,-79.058824,-0.023529,-0.023529,-0.007843,-1.960784,-1.960784,-1.960784,3
-2.823529,0,-79.058824,-0.007843,-0.023529,-0.007843,-1.960784,-1.960784,-1.960784,3
-2.823529,0,-80.470588,-0.023529,-0.023529,-0.007843,-1.960784,-1.960784,-1.960784,3
-2.823529,0,-80.470588,-0.007843,-0.023529,-0.007843,-1.960784,-1.960784,-1.960784,3
-2.823529,0,-80.470588,-0.007843,-0.023529,-0.007843,-1.960784,-1.960784,-1.960784,3
-2.823529,0,-80.470588,-0.007843,-0.023529,0.007843,-1.960784,-1.960784,-1.960784,3
-2.823529,0,-80.470588,-0.007843,-0.023529,-0.007843,-1.960784,-1.960784,-1.960784,3
-2.823529,0,-80.470588,-0.007843,-0.023529,-0.007843,-1.960784,-1.960784,-1.960784,3
-2.823529,0,-80.470588,-0.007843,-0.023529,0.007843,-1.960784,-1.960784,-1.960784,3
-2.823529,0,-80.470588,-0.023529,-0.023529,-0.007843,-1.960784,-1.960784,-1.960784,3
-2.823529,0,-80.470588,-0.007843,-0.023529,-0.007843,-1.960784,-1.960784,-1.960784,3
-2.823529,0,-80.470588,-0.007843,-0.023529,-0.007843,-1.960784,-1.960784,-1.960784,3
-2.823529,0,-80.470588,-0.023529,-0.023529,-0.007843,-1.960784,-1.960784,-1.960784,3
-2.823529,0,-80.470588,-0.023529,-0.023529,-0.007843,-1.960784,-1.960784,-1.960784,3
-2.823529,0,-80.470588,-0.023529,-0.023529,-0.007843,-1.960784,-1.960784,-1.960784,3
-2.823529,0,-80.470588,-0.007843,-0.023529,-0.007843,-1.960784,-1.960784,-1.960784,3
-2.823529,0,-80.470588,-0.007843,-0.023529,-0.007843,-1.960784,-1.960784,-1.960784,3
-2.823529,0,-80.470588,-0.007843,-0.023529,-0.007843,-1.960784,-1.960784,-1.960784,3
-2.823529,0,-80.470588,-0.007843,-0.023529,-0.007843,-1.960784,-1.960784,-1.960784,3
-2.823529,0,-80.470588,-0.023529,-0.023529,-0.007843,-1.960784,-1.960784,-1.960784,3
-2.823529,0,-80.470588,-0.007843,-0.023529,-0.007843,-1.960784,-1.960784,-1.960784,3
-2.823529,0,-80.470588,-0.007843,-0.023529,-0.007843,-1.960784,-1.960784,-1.960784,3
-2.823529,0,-80.470588,-0.007843,-0.023529,-0.007843,-1.960784,-1.960784,-1.960784,3
-2.823529,0,-80.470588,-0.007843,-0.023529,-0.007843,-1.960784,-1.960784,-1.960784,3
-2.823529,0,-80.470588,-0.007843,-0.023529,-0.007843,-1.960784,-1.960784,-1.960784,3
-2.823529,0,-80.470588,-0.007843,-0.023529,-0.007843,-1.960784,-1.960784,-1.960784,3
-2.823529,0,-80.470588,-0.007843,-0.023529,-0.007843,-1.960784,-1.960784,-1.960784,3
-2.823529,0,-80.470588,-0.023529,-0.023529,-0.007843,-1.960784,-1.960784,-1.960784,3
-2.823529,0,-80.470588,-0.007843,-0.023529,-0.007843,-1.960784,-1.960784,-1.960784,3
-2.823529,0,-80.470588,-0.007843,-0.023529,-0.007843,-1.960784,-1.960784,-1.960784,3
-2.823529,0,-80.470588,-0.007843,-0.023529,-0.007843,-1.960784,-1.960784,-1.960784,3
-2.823529,0,-80.470588,-0.007843,-0.023529,-0.007843,-1.960784,-1.960784,-1.960784,3
-2.823529,0,-80.470588,-0.007843,-0.023529,-0.007843,-1.960784,-1.960784,-1.960784,3
-2.823529,0,-80.470588,-0.007843,-0.023529,-0.007843,-1.960784,-1.960784,-1.960784,3
-2.823529,0,-80.470588,-0.023529,-0.023529,-0.007843,-1.960784,-1.960784,-1.960784,3
-2.823529,0,-80.470588,-0.007843,-0.023529,-0.007843,-1.960784,-1.960784,-1.960784,3
-2.823529,0,-80.470588,-0.007843,-0.023529,-0.007843,-1.960784,-1.960784,-1.960784,3
-2.823529,0,-80.470588,-0.007843,-0.023529,-0.007843,-1.960784,-1.960784,-1.960784,3
-2.823529,0,-80.470588,-0.007843,-0.023529,-0.007843,-1.960784,-1.960784,-1.960784,3
-2.823529,0,-80.470588,-0.007843,-0.023529,-0.007843,-1.960784,-1.960784,-1.960784,3
-2.823529,0,-80.470588,-0.007843,-0.023529,-0.007843,-1.960784,-1.960784,-1.960784,3
-2.823529,0,-80.470588,-0.007843,-0.023529,-0.007843,-1.960784,-1.960784,-1.960784,3
-2.823529,0,-80.470588,-0.007843,-0.023529,-0.007843,-1.960784,-1.960784,-1.960784,3
-2.823529,0,-80.470588,-0.007843,-0.023529,-0.007843,-1.960784,-1.960784,-1.960784,3
-2.823529,0,-80.470588,-0.007843,-0.023529,-0.007843,-1.960784,-1.960784,-1.960784,3
-2.823529,0,-80.470588,-0.007843,-0.023529,-0.007843,-1.960784,-1.960784,-1.960784,3
-2.823529,0,-80.470588,-0.007843,-0.023529,0.007843,-1.960784,-1.960784,-1.960784,3
-2.823529,0,-80.470588,-0.007843,-0.023529,-0.007843,-1.960784,-1.960784,-1.960784,3
-2.823529,0,-80.470588,-0.007843,-0.023529,-0.007843,-1.960784,-1.960784,-1.960784,3
-2.823529,0,-80.470588,-0.007843,-0.023529,-0.007843,-1.960784,-1.960784,-1.960784,3
-2.823529,0,-81.882353,-0.023529,-0.023529,-0.007843,-1.960784,-1.960784,-1.960784,3
-2.823529,0,-81.882353,-0.007843,-0.023529,-0.007843,-1.960784,-1.960784,-1.960784,3
-2.823529,0,-81.882353,-0.007843,-0.023529,-0.007843,-1.960784,-1.960784,-1.960784,3
-2.823529,0,-81.882353,-0.007843,-0.023529,-0.007843,-1.960784,-1.960784,-1.960784,3
-2.823529,0,-81.882353,-0.007843,-0.023529,-0.007843,-1.960784,-1.960784,-1.960784,3
-2.823529,0,-81.882353,-0.007843,-0.023529,-0.007843,-1.960784,-1.960784,-1.960784,3
-2.823529,0,-81.882353,-0.007843,-0.023529,-0.007843,-1.960784,-1.960784,-1.960784,3
-2.823529,0,-81.882353,-0.007843,-0.023529,-0.007843,-1.960784,-1.960784,-1.960784,3
-2.823529,0,-81.882353,-0.023529,-0.039216,-0.007843,-1.960784,-1.960784,-1.960784,3
-2.823529,0,-81.882353,-0.007843,-0.023529,-0.007843,-1.960784,-1.960784,-1.960784,3
-2.823529,0,-81.882353,-0.007843,-0.023529,-0.007843,-1.960784,-1.960784,-1.960784,3
-2.823529,0,-81.882353,-0.007843,-0.023529,-0.007843,-1.960784,-1.960784,-1.960784,3
-2.823529,0,-81.882353,-0.007843,-0.023529,-0.007843,-1.960784,-1.960784,-1.960784,3
-2.823529,0,-81.882353,-0.023529,-0.023529,-0.007843,-1.960784,-1.960784,-1.960784,3
-2.823529,0,-81.882353,-0.007843,-0.023529,-0.007843,-1.960784,-1.960784,-1.960784,3
-2.823529,0,-81.882353,-0.007843,-0.023529,-0.007843,-1.960784,-1.960784,-1.960784,3
-2.823529,0,-81.882353,-0.007843,-0.023529,-0.007843,-1.960784,-1.960784,-1.960784,3
-2.823529,0,-81.882353,-0.007843,-0.023529,-0.007843,-1.960784,-1.960784,-1.960784,3
-2.823529,0,-81.882353,-0.007843,-0.023529,-0.007843,-1.960784,-1.960784,-1.960784,3
-2.823529,0,-81.882353,-0.023529,-0.023529,-0.007843,-1.960784,-1.960784,-1.960784,3
-2.823529,0,-81.882353,-0.023529,-0.023529,-0.007843,-1.960784,-1.960784,-1.960784,3
-2.823529,0,-81.882353,-0.007843,-0.023529,-0.007843,-1.960784,-1.960784,-1.960784,3
-2.823529,0,-81.882353,-0.007843,-0.023529,-0.007843,-1.960784,-1.960784,-1.960784,3
-2.823529,0,-81.882353,-0.007843,-0.023529,-0.007843,-1.960784,-1.960784,-1.960784,3
-2.823529,0,-81.882353,-0.007843,-0.023529,-0.007843,-1.960784,-1.960784,-1.960784,3
-2.823529,0,-81.882353,-0.007843,-0.023529,-0.007843,-1.960784,-1.960784,-1.960784,3
-2.823529,0,-81.882353,-0.007843,-0.023529,-0.007843,-1.960784,-1.960784,-1.960784,3
-2.823529,0,-81.882353,-0.023529,-0.023529,-0.007843,-1.960784,-1.960784,-1.960784,3
-2.823529,0,-81.882353,-0.007843,-0.023529,-0.007843,-1.960784,-1.960784,-1.960784,3
-2.823529,0,-81.882353,-0.007843,-0.023529,-0.007843,-1.960784,-1.960784,-1.960784,3
-2.823529,0,-81.882353,-0.007843,-0.023529,-0.007843,-1.960784,-1.960784,-1.960784,3
-2.823529,0,-81.882353,-0.007843,-0.023529,0.007843,-1.960784,-1.960784,-1.960784,3
-2.823529,0,-81.882353,-0.007843,-0.023529,-0.007843,-1.960784,-1.960784,-1.960784,3
-2.823529,0,-81.882353,-0.023529,-0.023529,-0.007843,-1.960784,-1.960784,-1.960784,3
-2.823529,0,-81.882353,-0.007843,-0.023529,-0.007843,-1.960784,-1.960784,-1.960784,3
-2.823529,0,-81.882353,-0.007843,-0.023529,-0.007843,-1.960784,-1.960784,-1.960784,3
-2.823529,0,-81.882353,-0.007843,-0.023529,-0.007843,-1.960784,-1.960784,-1.960784,3
-2.823529,0,-81.882353,-0.007843,-0.023529,0.007843,-1.960784,-1.960784,-1.960784,3
-2.823529,0,-81.882353,-0.007843,-0.023529,0.007843,-1.960784,-1.960784,-1.960784,3
-2.823529,0,-81.882353,-0.007843,-0.023529,-0.007843,-1.960784,-1.960784,-1.960784,3
-2.823529,0,-81.882353,-0.007843,-0.023529,-0.007843,-1.960784,-1.960784,-1.960784,3
-2.823529,0,-81.882353,-0.007843,-0.023529,-0.007843,-1.960784,-1.960784,-1.960784,3
-2.823529,0,-81.882353,-0.007843,-0.023529,-0.007843,-1.960784,-1.960784,-1.960784,3
-2.823529,0,-81.882353,-0.007843,-0.023529,-0.007843,-1.960784,-1.960784,-1.960784,3
-2.823529,0,-81.882353,-0.023529,-0.023529,-0.007843,-1.960784,-1.960784,-1.960784,3
-2.823529,0,-81.882353,-0.007843,-0.023529,-0.007843,-1.960784,-1.960784,-1.960784,3
-2.823529,0,-81.882353,-0.007843,-0.023529,-0.007843,-1.960784,-1.960784,-1.960784,3
-2.823529,0,-81.882353,-0.007843,-0.023529,-0.007843,-1.960784,-1.960784,-1.960784,3
-2.823529,0,-83.294118,-0.007843,-0.023529,-0.007843,-1.960784,-1.960784,-1.960784,3
-2.823529,0,-83.294118,-0.007843,-0.023529,-0.007843,-1.960784,-1.960784,-1.960784,3
-2.823529,0,-83.294118,-0.007843,-0.023529,-0.007843,-1.960784,-1.960784,-1.960784,3
-2.823529,0,-83.294118,-0.007843,-0.023529,-0.007843,-1.960784,-1.960784,-1.960784,3
-2.823529,0,-83.294118,-0.007843,-0.023529,-0.007843,-1.960784,-1.960784,-1.960784,3
-2.823529,0,-83.294118,-0.007843,-0.023529,-0.007843,-1.960784,-1.960784,-1.960784,3
-2.823529,0,-83.294118,-0.007843,-0.023529,-0.007843,-1.960784,-1.960784,-1.960784,3
-2.823529,0,-83.294118,-0.007843,-0.023529,-0.007843,-1.960784,-1.960784,-1.960784,3
-2.823529,0,-83.294118,-0.007843,-0.023529,-0.007843,-1.960784,-1.960784,-1.960784,3
-2.823529,0,-83.294118,-0.023529,-0.023529,-0.007843,-1.960784,-1.960784,-1.960784,3
-2.823529,0,-83.294118,-0.007843,-0.023529,-0.007843,-1.960784,-1.960784,-1.960784,3
-2.823529,0,-83.294118,-0.007843,-0.023529,-0.007843,-1.960784,-1.960784,-1.960784,3
-2.823529,0,-83.294118,-0.007843,-0.023529,-0.007843,-1.960784,-1.960784,-1.960784,3
-2.823529,0,-83.294118,-0.007843,-0.023529,-0.007843,-1.960784,-1.960784,-1.960784,3
-2.823529,0,-83.294118,-0.023529,-0.023529,-0.007843,-1.960784,-1.960784,-1.960784,3
-2.823529,0,-83.294118,-0.023529,-0.023529,-0.007843,-1.960784,-1.960784,-1.960784,3
-2.823529,0,-83.294118,-0.007843,-0.023529,-0.007843,-1.960784,-1.960784,-1.960784,3
-2.823529,0,-83.294118,-0.023529,-0.023529,-0.007843,-1.960784,-1.960784,-1.960784,3
-2.823529,0,-83.294118,-0.023529,-0.023529,-0.007843,-1.960784,-1.960784,-1.960784,3
-2.823529,0,-83.294118,-0.007843,-0.023529,-0.007843,-1.960784,-1.960784,-1.960784,3
-2.823529,0,-83.294118,-0.007843,-0.023529,-0.007843,-1.960784,-1.960784,-1.960784,3
-2.823529,0,-83.294118,-0.007843,-0.023529,-0.007843,-1.960784,-1.960784,-1.960784,3
-2.823529,0,-83.294118,-0.023529,-0.023529,-0.007843,-1.960784,-1.960784,-1.960784,3
-2.823529,0,-83.294118,-0.007843,-0.023529,-0.007843,-1.960784,-1.960784,-1.960784,3
-2.823529,0,-83.294118,-0.023529,-0.023529,-0.007843,-1.960784,-1.960784,-1.960784,3
-2.823529,0,-83.294118,-0.007843,-0.023529,-0.007843,-1.960784,-1.960784,-1.960784,3
-2.823529,0,-83.294118,-0.007843,-0.023529,-0.007843,-1.960784,-1.960784,-1.960784,3
-2.823529,0,-83.294118,-0.007843,-0.023529,-0.007843,-1.960784,-1.960784,-1.960784,3
-2.823529,0,-83.294118,-0.007843,-0.023529,-0.007843,-1.960784,-1.960784,-1.960784,3
-2.823529,0,-83.294118,-0.007843,-0.023529,-0.007843,-1.960784,-1.960784,-1.960784,3
-2.823529,0,-83.294118,-0.007843,-0.023529,0.007843,-1.960784,-1.960784,-1.960784,3
-2.823529,0,-83.294118,-0.007843,-0.023529,-0.007843,-1.960784,-1.960784,-1.960784,3
-2.823529,0,-83.294118,-0.023529,-0.023529,-0.007843,-1.960784,-1.960784,-1.960784,3
-2.823529,0,-83.294118,-0.007843,-0.023529,-0.007843,-1.960784,-1.960784,-1.960784,3
-2.823529,0,-83.294118,-0.007843,-0.023529,-0.007843,-1.960784,-1.960784,-1.960784,3
-2.823529,0,-83.294118,-0.007843,-0.023529,-0.007843,-1.960784,-1.960784,-1.960784,3
-2.823529,0,-83.294118,-0.007843,-0.023529,0.007843,-1.960784,-1.960784,-1.960784,3
-2.823529,0,-83.294118,-0.007843,-0.023529,-0.007843,-1.960784,-1.960784,-1.960784,3
-2.823529,0,-83.294118,-0.023529,-0.023529,-0.007843,-1.960784,-1.960784,-1.960784,3
-2.823529,0,-83.294118,-0.023529,-0.023529,-0.007843,-1.960784,-1.960784,-1.960784,3
-2.823529,0,-83.294118,-0.007843,-0.023529,-0.007843,-1.960784,-1.960784,-1.960784,3
-2.823529,0,-83.294118,-0.007843,-0.023529,0.007843,-1.960784,-1.960784,-1.960784,3
-2.823529,0,-83.294118,-0.007843,-0.023529,-0.007843,-1.960784,-1.960784,-1.960784,3
-2.823529,0,-83.294118,-0.007843,-0.023529,-0.007843,-1.960784,-1.960784,-1.960784,3
-2.823529,0,-83.294118,-0.007843,-0.023529,-0.007843,-1.960784,-1.960784,-1.960784,3
-2.823529,0,-83.294118,-0.007843,-0.023529,-0.007843,-1.960784,-1.960784,-1.960784,3
-2.823529,0,-83.294118,-0.007843,-0.023529,-0.007843,-1.960784,-1.960784,-1.960784,3
-2.823529,0,-84.705882,-0.007843,-0.023529,-0.007843,-1.960784,-1.960784,-1.960784,3
-2.823529,0,-84.705882,-0.007843,-0.023529,-0.007843,-1.960784,-1.960784,-1.960784,3
-2.823529,0,-84.705882,-0.007843,-0.023529,-0.007843,-1.960784,-1.960784,-1.960784,3
-2.823529,0,-84.705882,-0.007843,-0.023529,-0.007843,-1.960784,-1.960784,-1.960784,3
-2.823529,0,-84.705882,-0.007843,-0.023529,-0.007843,-1.960784,-1.960784,-1.960784,3
-2.823529,0,-84.705882,-0.023529,-0.039216,-0.007843,-1.960784,-1.960784,-1.960784,3
-2.823529,0,-84.705882,-0.007843,-0.023529,0.007843,-1.960784,-1.960784,-1.960784,3
-2.823529,0,-84.705882,-0.007843,-0.039216,-0.007843,-1.960784,-1.960784,-1.960784,3
-2.823529,0,-84.705882,-0.023529,-0.023529,-0.007843,-1.960784,-1.960784,-1.960784,3
-2.823529,0,-84.705882,-0.007843,-0.023529,-0.007843,-1.960784,-1.960784,-1.960784,3
-2.823529,0,-84.705882,-0.007843,-0.023529,-0.007843,-1.960784,-1.960784,-1.960784,3
-2.823529,0,-84.705882,-0.007843,-0.023529,-0.007843,-1.960784,-1.960784,-1.960784,3
-2.823529,0,-84.705882,-0.007843,-0.023529,-0.007843,-1.960784,-1.960784,-1.960784,3
-2.823529,0,-84.705882,-0.007843,-0.023529,-0.007843,-1.960784,-1.960784,-1.960784,3
-2.823529,0,-84.705882,-0.007843,-0.023529,-0.007843,-1.960784,-1.960784,-1.960784,3
-2.823529,0,-84.705882,-0.007843,-0.023529,0.007843,-1.960784,-1.960784,-1.960784,3
-2.823529,0,-84.705882,-0.007843,-0.023529,-0.007843,-1.960784,-1.960784,-1.960784,3
-2.823529,0,-84.705882,-0.007843,-0.023529,-0.007843,-1.960784,-1.960784,-1.960784,3
-2.823529,0,-84.705882,-0.007843,-0.023529,-0.007843,-1.960784,-1.960784,-1.960784,3
-2.823529,0,-84.705882,-0.007843,-0.023529,-0.007843,-1.960784,-1.960784,-1.960784,3
-2.823529,0,-84.705882,-0.007843,-0.023529,-0.007843,-1.960784,-1.960784,-1.960784,3
-2.823529,0,-84.705882,-0.023529,-0.023529,0.007843,-1.960784,-1.960784,-1.960784,3
-2.823529,0,-84.705882,-0.007843,-0.023529,-0.007843,-1.960784,-1.960784,-1.960784,3
-2.823529,0,-84.705882,-0.007843,-0.023529,-0.007843,-1.960784,-1.960784,-1.960784,3
-2.823529,0,-84.705882,-0.007843,-0.023529,-0.007843,-1.960784,-1.960784,-1.960784,3
-2.823529,0,-84.705882,-0.007843,-0.023529,-0.007843,-1.960784,-1.960784,-1.960784,3
-2.823529,0,-84.705882,-0.007843,-0.023529,0.007843,-1.960784,-1.960784,-1.960784,3
-2.823529,0,-84.705882,-0.007843,-0.023529,-0.007843,-1.960784,-1.960784,-1.960784,3
-2.823529,0,-84.705882,-0.023529,-0.023529,-0.007843,-1.960784,-1.960784,-1.960784,3
-2.823529,0,-84.705882,-0.007843,-0.023529,-0.007843,-1.960784,-1.960784,-1.960784,3
-2.823529,0,-84.705882,-0.023529,-0.023529,-0.007843,-1.960784,-1.960784,-1.960784,3
-2.823529,0,-84.705882,-0.007843,-0.023529,-0.007843,-1.960784,-1.960784,-1.960784,3
-2.823529,0,-84.705882,-0.007843,-0.023529,-0.007843,-1.960784,-1.960784,-1.960784,3
-2.823529,0,-84.705882,-0.007843,-0.023529,-0.007843,-1.960784,-1.960784,-1.960784,3
-2.823529,0,-84.705882,-0.007843,-0.023529,-0.007843,-1.960784,-1.960784,-1.960784,3
-2.823529,0,-84.705882,-0.023529,-0.023529,-0.007843,-1.960784,-1.960784,-1.960784,3
-2.823529,0,-84.705882,-0.007843,-0.023529,-0.007843,-1.960784,-1.960784,-1.960784,3
-2.823529,0,-84.705882,-0.007843,-0.023529,-0.007843,-1.960784,-1.960784,-1.960784,3
-2.823529,0,-84.705882,-0.007843,-0.023529,-0.007843,-1.960784,-1.960784,-1.960784,3
-2.823529,0,-84.705882,-0.007843,-0.023529,-0.007843,-1.960784,-1.960784,-1.960784,3
-2.823529,0,-84.705882,-0.007843,-0.023529,-0.007843,-1.960784,-1.960784,-1.960784,3
-2.823529,0,-84.705882,-0.007843,-0.023529,-0.007843,-1.960784,-1.960784,-1.960784,3
-2.823529,0,-84.705882,-0.007843,-0.023529,-0.007843,-1.960784,-1.960784,-1.960784,3
-2.823529,0,-84.705882,-0.023529,-0.023529,-0.007843,-1.960784,-1.960784,-1.960784,3
-2.823529,0,-84.705882,-0.007843,-0.023529,-0.007843,-1.960784,-1.960784,-1.960784,3
-2.823529,0,-84.705882,-0.007843,-0.023529,-0.007843,-1.960784,-1.960784,-1.960784,3
-2.823529,0,-86.117647,-0.007843,-0.023529,-0.007843,-1.960784,-1.960784,-1.960784,3
-2.823529,0,-86.117647,-0.023529,-0.023529,-0.007843,-1.960784,-1.960784,-1.960784,3
-2.823529,0,-86.117647,-0.023529,-0.023529,-0.007843,-1.960784,-1.960784,-1.960784,3
-2.823529,0,-86.117647,-0.007843,-0.023529,-0.007843,-1.960784,-1.960784,-1.960784,3
-2.823529,0,-86.117647,-0.007843,-0.023529,-0.007843,-1.960784,-1.960784,-1.960784,3
-2.823529,0,-86.117647,-0.007843,-0.023529,-0.007843,-1.960784,-1.960784,-1.960784,3
-2.823529,0,-86.117647,-0.007843,-0.023529,-0.007843,-1.960784,-1.960784,-1.960784,3
-2.823529,0,-86.117647,-0.007843,-0.023529,-0.007843,-1.960784,-1.960784,-1.960784,3
-2.823529,0,-86.117647,-0.023529,-0.023529,-0.007843,-1.960784,-1.960784,-1.960784,3
-2.823529,0,-86.117647,-0.007843,-0.023529,-0.007843,-1.960784,-1.960784,-1.960784,3
-2.823529,0,-86.117647,-0.007843,-0.023529,-0.007843,-1.960784,-1.960784,-1.960784,3
-2.823529,0,-86.117647,-0.007843,-0.023529,-0.007843,-1.960784,-1.960784,-1.960784,3
-2.823529,0,-86.117647,-0.007843,-0.023529,-0.007843,-1.960784,-1.960784,-1.960784,3
-2.823529,0,-86.117647,-0.023529,-0.023529,-0.007843,-1.960784,-1.960784,-1.960784,3
-2.823529,0,-86.117647,-0.023529,-0.023529,-0.007843,-1.960784,-1.960784,-1.960784,3
-2.823529,0,-86.117647,-0.007843,-0.023529,-0.007843,-1.960784,-1.960784,-1.960784,3
-2.823529,0,-86.117647,-0.023529,-0.023529,-0.007843,-1.960784,-1.960784,-1.960784,3
-2.823529,0,-86.117647,-0.007843,-0.023529,-0.007843,-1.960784,-1.960784,-1.960784,3
-2.823529,0,-86.117647,-0.007843,-0.023529,-0.007843,-1.960784,-1.960784,-1.960784,3
-2.823529,0,-86.117647,-0.007843,-0.023529,-0.007843,-1.960784,-1.960784,-1.960784,3
-2.823529,0,-86.117647,-0.023529,-0.023529,-0.007843,-1.960784,-1.960784,-1.960784,3
-2.823529,0,-86.117647,-0.023529,-0.023529,-0.007843,-1.960784,-1.960784,-1.960784,3
-2.823529,0,-86.117647,-0.007843,-0.023529,-0.007843,-1.960784,-1.960784,-1.960784,3
-2.823529,0,-86.117647,-0.007843,-0.023529,-0.007843,-1.960784,-1.960784,-1.960784,3
-2.823529,0,-86.117647,-0.007843,-0.023529,-0.007843,-1.960784,-1.960784,-1.960784,3
-2.823529,0,-86.117647,-0.007843,-0.023529,-0.007843,-1.960784,-1.960784,-1.960784,3
-2.823529,0,-86.117647,-0.007843,-0.023529,-0.007843,-1.960784,-1.960784,-1.960784,3
-2.823529,0,-86.117647,-0.023529,-0.023529,-0.007843,-1.960784,-1.960784,-1.960784,3
-2.823529,0,-86.117647,-0.007843,-0.023529,-0.007843,-1.960784,-1.960784,-1.960784,3
-2.823529,0,-86.117647,-0.007843,-0.023529,-0.007843,-1.960784,-1.960784,-1.960784,3
-2.823529,0,-86.117647,-0.007843,-0.023529,-0.007843,-1.960784,-1.960784,-1.960784,3
-2.823529,0,-86.117647,-0.007843,-0.023529,-0.007843,-1.960784,-1.960784,-1.960784,3
-2.823529,0,-86.117647,-0.007843,-0.023529,-0.007843,-1.960784,-1.960784,-1.960784,3
-2.823529,0,-86.117647,-0.007843,-0.023529,-0.007843,-1.960784,-1.960784,-1.960784,3
-2.823529,0,-86.117647,-0.007843,-0.023529,-0.007843,-1.960784,-1.960784,-1.960784,3
-2.823529,0,-86.117647,-0.007843,-0.023529,-0.007843,-1.960784,-1.960784,-1.960784,3
-2.823529,0,-86.117647,-0.007843,-0.023529,-0.007843,-1.960784,-1.960784,-1.960784,3
-2.823529,0,-86.117647,-0.007843,-0.023529,-0.007843,-1.960784,-1.960784,-1.960784,3
-2.823529,0,-86.117647,-0.007843,-0.023529,-0.007843,-1.960784,-1.960784,-1.960784,3
-2.823529,0,-86.117647,-0.007843,-0.023529,-0.007843,-1.960784,-1.960784,-1.960784,3
-2.823529,0,-86.117647,-0.023529,-0.023529,-0.007843,-1.960784,-1.960784,-1.960784,3
-2.823529,0,-86.117647,-0.007843,-0.023529,-0.007843,-1.960784,-1.960784,-1.960784,3
-2.823529,0,-86.117647,-0.007843,-0.023529,-0.007843,-1.960784,-1.960784,-1.960784,3
-2.823529,0,-86.117647,-0.007843,-0.023529,-0.007843,-1.960784,-1.960784,-1.960784,3
-2.823529,0,-86.117647,-0.007843,-0.023529,-0.007843,-1.960784,-1.960784,-1.960784,3
-2.823529,0,-86.117647,-0.023529,-0.023529,-0.007843,-1.960784,-1.960784,-1.960784,3
-2.823529,0,-87.529412,-0.007843,-0.023529,-0.007843,-1.960784,-1.960784,-1.960784,3
-2.823529,0,-87.529412,-0.007843,-0.023529,-0.007843,-1.960784,-1.960784,-1.960784,3
-2.823529,0,-87.529412,-0.007843,-0.023529,-0.007843,-1.960784,-1.960784,-1.960784,3
-2.823529,0,-87.529412,-0.007843,-0.023529,-0.007843,-1.960784,-1.960784,-1.960784,3
-2.823529,0,-87.529412,-0.007843,-0.023529,0.007843,-1.960784,-1.960784,-1.960784,3
-2.823529,0,-87.529412,-0.007843,-0.023529,-0.007843,-1.960784,-1.960784,-1.960784,3
-2.823529,0,-87.529412,-0.007843,-0.023529,-0.007843,-1.960784,-1.960784,-1.960784,3
-2.823529,0,-87.529412,-0.007843,-0.023529,-0.007843,-1.960784,-1.960784,-1.960784,3
-2.823529,0,-87.529412,-0.007843,-0.023529,-0.007843,-1.960784,-1.960784,-1.960784,3
-2.823529,0,-87.529412,-0.023529,-0.023529,-0.007843,-1.960784,-1.960784,-1.960784,3
-2.823529,0,-87.529412,-0.007843,-0.023529,-0.007843,-1.960784,-1.960784,-1.960784,3
-2.823529,0,-87.529412,-0.007843,-0.023529,-0.007843,-1.960784,-1.960784,-1.960784,3
-2.823529,0,-87.529412,-0.007843,-0.023529,-0.007843,-1.960784,-1.960784,-1.960784,3
-2.823529,0,-87.529412,-0.023529,-0.023529,-0.007843,-1.960784,-1.960784,-1.960784,3
-2.823529,0,-87.529412,-0.023529,-0.023529,-0.007843,-1.960784,-1.960784,-1.960784,3
-2.823529,0,-87.529412,-0.007843,-0.023529,0.007843,-1.960784,-1.960784,-1.960784,3
-2.823529,0,-87.529412,-0.007843,-0.023529,-0.007843,-1.960784,-1.960784,-1.960784,3
-2.823529,0,-87.529412,-0.007843,-0.023529,-0.007843,-1.960784,-1.960784,-1.960784,3
-2.823529,0,-87.529412,-0.007843,-0.023529,-0.007843,-1.960784,-1.960784,-1.960784,3
-2.823529,0,-87.529412,-0.007843,-0.023529,-0.007843,-1.960784,-1.960784,-1.960784,3
-2.823529,0,-87.529412,-0.023529,-0.023529,-0.007843,-1.960784,-1.960784,-1.960784,3
-2.823529,0,-87.529412,-0.007843,-0.023529,-0.007843,-1.960784,-1.960784,-1.960784,3
-2.823529,0,-87.529412,-0.007843,-0.023529,-0.007843,-1.960784,-1.960784,-1.960784,3
-2.823529,0,-87.529412,-0.007843,-0.023529,-0.007843,-1.960784,-1.960784,-1.960784,3
-2.823529,0,-87.529412,-0.007843,-0.023529,0.007843,-1.960784,-1.960784,-1.960784,3
-2.823529,0,-87.529412,-0.007843,-0.023529,-0.007843,-1.960784,-1.960784,-1.960784,3
-2.823529,0,-87.529412,-0.007843,-0.023529,-0.007843,-1.960784,-1.960784,-1.960784,3
-2.823529,0,-87.529412,-0.023529,-0.023529,-0.007843,-1.960784,-1.960784,-1.960784,3
-2.823529,0,-87.529412,-0.007843,-0.023529,-0.007843,-1.960784,-1.960784,-1.960784,3
-2.823529,0,-87.529412,-0.007843,-0.023529,-0.007843,-1.960784,-1.960784,-1.960784,3
-2.823529,0,-87.529412,-0.007843,-0.023529,-0.007843,-1.960784,-1.960784,-1.960784,3
-2.823529,0,-87.529412,-0.007843,-0.023529,-0.007843,-1.960784,-1.960784,-1.960784,3
-2.823529,0,-87.529412,-0.007843,-0.023529,-0.007843,-1.960784,-1.960784,-1.960784,3
-2.823529,0,-87.529412,-0.007843,-0.039216,-0.007843,-1.960784,-1.960784,-1.960784,3
-2.823529,0,-87.529412,-0.007843,-0.023529,-0.007843,-1.960784,-1.960784,-1.960784,3
-2.823529,0,-87.529412,-0.023529,-0.023529,-0.007843,-1.960784,-1.960784,-1.960784,3
-2.823529,0,-87.529412,-0.007843,-0.023529,-0.007843,-1.960784,-1.960784,-1.960784,3
-2.823529,0,-87.529412,-0.007843,-0.023529,-0.007843,-1.960784,-1.960784,-1.960784,3
-2.823529,0,-87.529412,-0.007843,-0.039216,-0.007843,-1.960784,-1.960784,-1.960784,3
-2.823529,0,-87.529412,-0.007843,-0.023529,-0.007843,-1.960784,-1.960784,-1.960784,3
-2.823529,0,-87.529412,-0.007843,-0.023529,-0.007843,-1.960784,-1.960784,-1.960784,3
-2.823529,0,-87.529412,-0.007843,-0.023529,-0.007843,-1.960784,-1.960784,-1.960784,3
-2.823529,0,-87.529412,-0.007843,-0.023529,-0.007843,-1.960784,-1.960784,-1.960784,3
-2.823529,0,-87.529412,-0.007843,-0.023529,-0.007843,-1.960784,-1.960784,-1.960784,3
-2.823529,0,-87.529412,-0.007843,-0.023529,-0.007843,-1.960784,-1.960784,-1.960784,3
-2.823529,0,-87.529412,-0.023529,-0.023529,-0.007843,-1.960784,-1.960784,-1.960784,3
-2.823529,0,-88.941176,-0.007843,-0.039216,-0.007843,-1.960784,-1.960784,-1.960784,3
-2.823529,0,-88.941176,-0.023529,-0.023529,-0.007843,-1.960784,-1.960784,-1.960784,3
-2.823529,0,-88.941176,-0.007843,-0.023529,-0.007843,-1.960784,-1.960784,-1.960784,3
-2.823529,0,-88.941176,-0.007843,-0.023529,-0.007843,-1.960784,-1.960784,-1.960784,3
-2.823529,0,-88.941176,-0.007843,-0.023529,-0.007843,-1.960784,-1.960784,-1.960784,3
-2.823529,0,-88.941176,-0.023529,-0.023529,0.007843,-1.960784,-1.960784,-1.960784,3
-2.823529,0,-88.941176,-0.007843,-0.023529,-0.007843,-1.960784,-1.960784,-1.960784,3
-2.823529,0,-88.941176,-0.023529,-0.023529,-0.007843,-1.960784,-1.960784,-1.960784,3
-2.823529,0,-88.941176,-0.007843,-0.023529,-0.007843,-1.960784,-1.960784,-1.960784,3
-2.823529,0,-88.941176,-0.007843,-0.023529,-0.007843,-1.960784,-1.960784,-1.960784,3
-2.823529,0,-88.941176,-0.007843,-0.023529,-0.007843,-1.960784,-1.960784,-1.960784,3
-2.823529,0,-88.941176,-0.007843,-0.023529,-0.007843,-1.960784,-1.960784,-1.960784,3
-2.823529,0,-88.941176,-0.007843,-0.023529,-0.007843,-1.960784,-1.960784,-1.960784,3
-2.823529,0,-88.941176,-0.023529,-0.023529,-0.007843,-1.960784,-1.960784,-1.960784,3
-2.823529,0,-88.941176,-0.007843,-0.023529,-0.007843,-1.960784,-1.960784,-1.960784,3
-2.823529,0,-88.941176,-0.007843,-0.023529,-0.007843,-1.960784,-1.960784,-1.960784,3
-2.823529,0,-88.941176,-0.023529,-0.023529,-0.007843,-1.960784,-1.960784,-1.960784,3
-2.823529,0,-88.941176,-0.023529,-0.023529,-0.007843,-1.960784,-1.960784,-1.960784,3
